Ax,Ay,Az,Gx,Gy,Gz
0.6158079039519759,0.4243182386790093,0.7393044783587692,0.5093238223136892,0.4998011755062176,0.4413066606205417
0.5030015007503751,0.4998749061796348,0.7530647985989494,0.5007168146223206,0.4942009522646807,0.5004883408619216
0.5032516258129064,0.4983737803352516,1.0000000000000002,1.0,0.0003662556464412,1.0
0.8154077038519258,0.0983237428071053,0.6389792344258195,0.4575300416833807,0.5846364476690444,0.279055409247083
0.5040020010005002,1.0000000000000002,0.9196897673254942,0.6465929504508433,0.9771404154385476,0.0
0.5027513756878439,0.4998749061796348,0.7525644233174882,0.5007325112928824,0.4942009522646807,0.5005040375324834
0.4214607303651825,0.5869402051538656,0.6870152614460847,0.6892931266023684,0.4205835673299963,1.0
1.0,0.5469101826369779,0.490367775831874,1.0,0.0,0.8345134904163105
0.055527763881941,0.4583437578183639,0.7317988491368528,0.6206498421612572,1.0,0.0
0.5255127563781891,0.4620965724293221,0.7508131098323744,0.3501560946683643,1.0,0.7383556865549297
0.3854427213606803,0.4423317488116088,0.8406304728546412,1.0,0.790838376615449,0.6354221532343862
0.5147573786893446,0.4500875656742558,0.7700775581686266,0.3301794652667562,0.4743324554824982,1.0
0.6695847923961981,0.5339004253189894,0.7495621716287216,0.592631285208504,0.5162530303294557,0.0
0.2356178089044522,0.6347260445334002,0.8368776582436829,0.7635052409438932,0.5118422659015993,1.0
0.3016508254127063,0.4420815611708782,0.5696772579434577,0.4970699548284703,0.0,0.1275633535064618
0.694097048524262,0.6629972479359522,0.7575681761320991,0.0757381795350297,0.4579573399375621,0.6237647592305143
0.5025012506253126,0.4998749061796348,0.7528146109582188,0.500687165355704,0.4940945637197621,0.5004569475207981
0.0,0.910933199899925,0.0,0.2037602246367965,1.0,0.6398032683956258
0.5025012506253126,0.4998749061796348,0.7528146109582188,0.5006261227479638,0.4941399096569405,0.5004429949247432
0.4707353676838419,0.7388041030773081,0.6197147860895673,0.0,0.5093098697176344,0.5063937771421595
0.4274637318659329,0.8531398548911686,0.9869902426820116,0.0,0.9924150199696532,0.8530250972321537
0.0,1.0000000000000002,0.6402301726294722,0.4260006627483126,1.0,0.982008127387202
0.8106553276638317,0.7705779334500877,0.0545409056792594,1.0,0.0,0.0
0.5025012506253126,0.5001250938203654,0.7528146109582188,0.500763904634006,0.4941852555941189,0.5004272982541814
0.4504752376188093,0.7072804603452592,0.498123592694521,0.9638627762178,0.5026248321328287,0.665974850445611
0.4524762381190594,0.8794095571678762,0.5208906680010008,0.4410328409229642,0.3565655684810855,0.4455953398329176
0.2493746873436718,0.531898924193145,0.625969477107831,0.1061373981896506,0.0,0.0
0.9879939969984992,0.5308981736302228,0.7738303727795848,0.6323560702513211,0.0045624989099534,1.0
0.3336668334167083,0.4873655241431074,0.58443832874656,0.3438530094005616,1.0,0.6954898233252524
1.0,0.0,0.8138603952964725,0.2533582154629645,0.3892076669515322,0.0324903639883496
0.425712856428214,0.7738303727795849,0.4998749061796348,0.9963827894727664,0.3773497043793711,0.5611803896262448
0.284392196098049,0.5441581185889418,0.5756817613209908,0.3605019446430751,1.0,0.9643964630169
0.5027513756878439,0.5001250938203654,0.7528146109582188,0.5007168146223206,0.4942009522646807,0.5004569475207981
0.5027513756878439,0.5001250938203654,0.7530647985989494,0.500687165355704,0.494171302998064,0.5004883408619216
1.0,0.8711533650237681,0.999499624718539,0.6713622965973106,0.0,1.0
0.4102051025512756,0.6649987490617966,0.7327995996997749,0.6810227252908244,0.4310671991907494,1.0
0.4249624812406202,0.7175381536152116,0.6935201401050789,0.4105429303939864,0.5948445157577131,0.0
0.7908954477238619,0.4968726544908682,0.8343757818363774,0.5952264680747161,0.4813052653609362,0.0
1.0,0.0,0.3009757317988492,0.3609902855049968,0.3512391649371261,0.953379144357047
0.5025012506253126,0.4998749061796348,0.7528146109582188,0.5006714686851422,0.4942619948724209,0.5004429949247432
0.5985492746373186,0.4255691768826621,0.7990993244933702,1.0,0.7095906657132393,0.6821057955595863
0.00200100050025,0.4228171128346261,0.4008006004503378,0.6230008545965083,0.0,0.2854509304637494
0.3829414707353676,0.4776082061546161,0.482611958969227,0.3175732947311509,1.0,0.9471371016969844
0.7713856928464231,0.42006504878659,0.6207155366524895,0.4833964106946649,0.9875159146798752,0.5419973141252594
0.9997498749374686,0.5709281961471104,0.4771078308731549,1.0,0.0,0.0
0.7428714357178589,0.6179634726044535,0.9061796347260448,0.3573137764445297,0.4084203917191342,1.0
0.4307153576788394,0.0,0.1180885664248186,0.1515687950189232,0.016999494218393,0.799719204004395
0.4732366183091545,0.4630973229922443,0.6572429321991495,0.1295481102952718,1.0,0.7334565812651517
0.4364682341170585,0.7943457593194898,0.6262196647485615,0.17822871793083,0.3273558086401451,0.4481748260285679
0.0,1.0000000000000002,0.0,0.8038857980012906,0.754165721959642,0.0597921063187819
0.5025012506253126,0.5001250938203654,0.7528146109582188,0.5006714686851422,0.4941852555941189,0.5004883408619216
0.4937468734367183,0.6019514635976984,0.7115336502376783,0.0,0.3581666288783857,0.4992221427699391
0.5782891445722861,0.5091318488866652,0.7535651738804104,0.6310288295515984,0.5488340861921621,0.0768526431449151
0.3571785892946473,0.9659744808606456,0.8383787840880661,0.4901878368243891,0.1829603920679491,1.0
0.8139069534767382,0.4578433825369028,0.8003502626970229,0.4256954497096116,0.4264733069396724,1.0
0.3886943471735867,0.4660995746810109,0.7723292469352014,0.4929644034393149,0.4895460174058635,0.4261680939009714
0.1693346673336668,0.4053039779834877,0.5161371028271204,0.4243996023510124,1.0,0.5978826935486684
0.3684342171085542,0.5389041781336004,0.8471353515136353,0.5845283150496189,0.4797792001674311,1.0
0.5027513756878439,0.5001250938203654,0.7528146109582188,0.5007168146223206,0.4942009522646807,0.5004883408619216
0.1603301650825412,0.7795846885163875,1.0000000000000002,0.554434309433699,0.7886094493956781,0.0
0.8274137068534266,0.4523392544408307,0.5308981736302227,0.5043497218201162,0.320091738319061,0.5385335821546297
0.412456228114057,0.3800350262697024,0.6667500625469103,0.0,0.7075902122538675,0.0297120532989169
0.5027513756878439,0.5001250938203654,0.7528146109582188,0.500610426077402,0.4941556063275023,0.5004429949247432
0.5030015007503751,0.4998749061796348,0.7533149862396799,0.5006261227479638,0.4941852555941189,0.5004429949247432
0.5232616308154077,0.4863647735801852,0.7945959469602203,0.0,1.0,0.6795716553011144
0.5030015007503751,0.5001250938203654,0.7530647985989494,0.5006714686851422,0.4940788670492003,0.5004726441913598
0.5022511255627813,0.4998749061796348,0.7525644233174882,0.5005807768107854,0.4941852555941189,0.5004429949247432
0.5025012506253126,0.4998749061796348,0.7528146109582188,0.5005650801402236,0.4941556063275023,0.5004883408619216
0.485992996498249,0.6562421816362274,0.7047785839379536,0.5536407555330763,0.3363290719779549,1.0
0.5030015007503751,0.5001250938203654,0.7528146109582188,0.5007028620262658,0.4941556063275023,0.5004429949247432
0.4589794897448724,0.743307480610458,0.4878658994245685,1.0,0.6731464848178315,0.6664021486997924
0.1570785392696348,0.0,0.5466599949962473,0.9687915307741948,0.4570573974920208,0.00604321816628
0.5025012506253126,0.4998749061796348,0.7528146109582188,0.500610426077402,0.494171302998064,0.5005040375324834
0.5492746373186592,0.5193895421566176,0.7745809357017766,0.5375412037602246,0.4401172018068612,0.9814273505764166
0.4844922461230614,0.3955466599949964,0.8311233425068802,0.0,0.5454157001587108,0.5340007325112929
0.3189094547273636,0.6817613209907432,0.7097823367525645,0.5328252262936672,0.4260163594188744,0.967692763834871
0.516008004002001,0.5166374781085816,0.7575681761320991,0.4675863752899524,0.5108202382405777,0.5879920470202487
0.1078039019509755,0.3892919689767327,0.3570177633224919,0.5301864415647837,0.5450790937788862,0.5294835795385179
0.8699349674837418,0.3690267700775582,0.6715036277207908,0.500838899837801,0.6212009697054258,0.4488776880548337
0.8161580790395196,0.9654741055791848,0.7100325243932951,0.5239130055635977,0.0,1.0
0.51975987993997,0.6925193895421567,0.8406304728546412,0.6861032143293162,0.510331897378656,0.0
0.373936968484242,0.5509131848886666,0.7623217413059795,0.4567504403788129,0.3834696618239531,1.0
0.4712356178089044,0.6264698523892921,0.7180385288966726,0.0,0.2451785060257774,0.6345693008005302
0.4857428714357178,0.4178133600200151,0.684013009757318,0.9926295411339972,0.6231386364825505,0.4382405776374767
0.5027513756878439,0.4998749061796348,0.7530647985989494,0.5006418194185256,0.4941242129863787,0.5004116015836196
0.5025012506253126,0.4998749061796348,0.7528146109582188,0.500610426077402,0.4941556063275023,0.5005197342030452
0.4674837418709354,0.6407305479109333,0.7895921941456093,0.0,0.4362418682526117,0.5159774665573713
0.5350175087543771,0.5446584938704029,0.7983487615711785,0.5332839178889722,0.4427123846730732,0.769168250867677
0.5275137568784392,0.5421566174630975,0.7408056042031524,0.4739958491026736,0.4708826761079233,0.3082494724174617
0.4702351175587793,0.5399049286965225,0.7378033525143859,0.3932521757329473,0.4345169785653243,0.496398486143328
0.5560280140070034,0.5704278208656494,0.769326995246435,0.4029126044264611,0.5179465266756196,0.0
0.44072036018009,0.5371528646484865,0.8438829121841382,0.1189406491445314,0.5904041020632401,0.4598636133735633
0.5800400200100049,0.7215411558669004,0.3745308981736303,1.0,0.657031236374418,0.8182465074908001
0.0285142571285643,1.0000000000000002,0.5444083062296723,0.6201771979698972,0.5754329664963287,1.0
0.48224112056028,0.5376532399299476,0.7745809357017766,0.4329595200306957,0.5370371662277412,0.5260041508973263
0.5025012506253126,0.4998749061796348,0.7525644233174882,0.5007168146223206,0.4941399096569405,0.5005336867991
0.8366683341670835,0.422316737553165,0.6052039029271955,0.6959310741754887,1.0,1.0
0.9354677338669334,0.3642732049036778,0.7640730547910934,0.5761358285225945,0.0,0.0582189511135916
0.818409204602301,0.0,0.685764323242432,0.1146223206655388,0.41815755969095,0.8656295236932521
0.584792396198099,0.4998749061796348,0.7800850637978485,0.4408200638331269,0.4388649563109336,0.4921412002720756
0.2546273136568284,0.5526644983737805,0.7187890918188643,0.3891919702809704,0.5029457418420915,0.4421926504700281
0.5027513756878439,0.4998749061796348,0.7530647985989494,0.500687165355704,0.4942009522646807,0.5005493834696618
1.0,0.0,0.829121841381036,0.4749725308265169,0.5543122242182186,0.0
0.6145572786393196,0.4986239679759821,0.7645734300725546,0.6288312956729512,0.4832132828714442,0.0
0.5027513756878439,0.5011258443832876,0.803102326745059,0.4970996040950869,0.5154437797582713,0.7058967159077036
0.5030015007503751,0.5001250938203654,0.7530647985989494,0.500687165355704,0.4942166489352425,0.5005040375324834
0.4232116058029014,0.701776332249187,0.3440080060045034,0.6528960357186459,0.3752446064495875,1.0
0.5130065032516258,0.2146609957468102,0.902176632474356,1.0,0.8142176953799467,0.5112021905575806
0.6948474237118558,0.5726795096322244,0.6822616962722042,0.5022742731569493,0.6256710326665155,0.0
0.3029014507253627,0.5531648736552416,0.7950963222416814,0.4249332891501125,0.4945968571777386,0.0
0.9514757378689344,0.4648486364773581,0.9609707280460348,0.6292882431937492,0.0223415944329141,0.2742940858433472
0.5027513756878439,0.5001250938203654,0.7530647985989494,0.500687165355704,0.4942009522646807,0.5004569475207981
0.6200600300150074,0.5466599949962473,0.7470602952214161,0.5672393044630867,0.5532605472905803,0.0
0.5027513756878439,0.5001250938203654,0.7530647985989494,0.500687165355704,0.4942009522646807,0.5004726441913598
1.0,0.7583187390542909,1.0000000000000002,0.0578526954671503,0.2842143816383836,1.0
0.6073036518259128,0.5141356017012761,0.740555416562422,0.5728081343635,0.0578369987965886,1.0
0.3971985992996498,0.500375281461096,0.4033024768576433,0.0961264105202574,1.0,0.9876240472993004
0.0177588794397198,1.0000000000000002,0.6900175131348513,0.726009383120847,0.5571515775153915,0.0066379475731203
0.3086543271635817,0.6342256692519391,0.7595696772579437,0.4901407468127038,0.5158100354047125,0.8592514432216545
0.5877938969484742,0.2904678508881662,0.8316237177883414,0.4868758393358564,0.434851840870642,0.0693740516594869
0.605552776388194,0.5013760320240181,0.4363272454340756,1.0,0.0,0.0136735441338053
0.9997498749374686,0.719539654741056,0.0,1.0,0.0020597519926051,1.0
0.5022511255627813,0.4998749061796348,0.7528146109582188,0.5005807768107854,0.4941556063275023,0.5004569475207981
0.485992996498249,0.6569927445584189,0.8001000750562923,0.5502537628407486,0.5144514013638662,0.0
0.4112056028014006,0.4375781836377284,0.8233675256442332,0.6206812355023806,0.3802030102725988,0.6870955927237212
0.9237118559279638,0.6377282962221668,0.6760070052539405,0.0816750091563912,1.0,1.0
0.5027513756878439,0.500375281461096,0.7530647985989494,0.5006261227479638,0.4942323456058042,0.5004726441913598
0.9997498749374686,0.4633475106329748,0.2609457092819615,1.0,0.39511310323177,0.0
0.1955977988994496,0.4470853139854892,0.5626720040030023,0.5900535430873607,0.0,0.0
0.535767883941971,0.6234676007005255,0.7025268951713787,0.5463313392748138,0.5343512914871723,0.0
0.5027513756878439,0.5001250938203654,0.7530647985989494,0.5005807768107854,0.494171302998064,0.5004569475207981
0.2848924462231115,0.4635976982737054,0.5496622466850138,0.4768195057292848,0.0,0.0
0.6250625312656327,0.4856142106579936,0.7678258694020517,0.4391858660201964,0.4695083453965153,0.8283638837051119
0.3744372186093046,0.8238679009256944,0.7267950963222418,0.4762701222596229,0.0,0.9998325688473412
0.5025012506253126,0.5001250938203654,0.7528146109582188,0.5007028620262658,0.4942009522646807,0.5004883408619216
0.5030015007503751,0.5001250938203654,0.7530647985989494,0.5007028620262658,0.4941399096569405,0.5004272982541814
0.4889944972486242,0.730047535651739,0.6642481861396048,0.6902855049967734,0.4032928126689572,0.5902366709105813
0.1405702851425712,0.4786089567175383,0.3865399049286966,0.5318031986326456,0.4223538029544622,0.6371173936550569
0.0,1.0000000000000002,0.4445834375781837,0.2983309206969322,0.9995116591380784,1.0
0.5275137568784392,0.5524143107330499,0.7673254941205905,0.5952264680747161,0.527790083192354,1.0
0.5295147573786892,0.5844383287465601,0.7613209907430574,0.4166001011563214,0.5570748382370895,0.7845195946770847
0.8809404702351173,0.6257192894671004,0.8093570177633227,0.0792019115056595,1.0,0.5966618413938644
0.9997498749374686,0.2782086564923693,1.0000000000000002,0.9994349198597764,0.6290597694333502,0.0
0.6418209104552275,0.5093820365273957,0.5821866399799851,0.3457767235816313,1.0,1.0
0.4634817408704351,0.6389792344258195,0.7493119839879911,1.0,0.6793588782112772,0.4920644609937736
0.5040020010005002,0.226920190142607,0.9662246685013762,0.0,0.3010778380452413,0.4520501595828173
0.4382191095547773,0.4706029522141607,0.7065298974230674,0.0,0.073800512757905,0.6171564609240107
0.0,0.604953715286465,0.1373530147610708,0.5827127334879746,0.9477475277743864,0.0
0.5025012506253126,0.5001250938203654,0.7530647985989494,0.5006714686851422,0.4941242129863787,0.5004726441913598
0.4424712356178089,0.5721791343507632,0.43832874655992,0.0737394701501648,1.0,1.0
0.7273636818409204,1.0000000000000002,0.9121841381035778,0.0,0.7312450947904494,1.0
0.2963981990995498,0.6622466850137605,0.6775081310983239,0.6825330938137677,0.4761933829813209,0.7264227287789735
0.4349674837418709,0.500375281461096,0.4395796847635728,0.1155083105150252,0.0,0.0
0.180840420210105,1.0000000000000002,1.0000000000000002,0.0,1.0,0.4823429896925196
0.4252126063031515,0.4843632724543409,0.7513134851138354,0.5110644086715385,0.4796885082930743,0.4844794809634267
0.1670835417708854,0.0010007505629222,0.6362271703777834,0.3905663009923784,0.0,1.0
0.2931465732866433,0.4083062296722543,0.6037027770828122,0.503601513856672,0.5012818947625443,0.5012818947625443
0.4564782391195597,0.9859894921190896,0.7112834625969479,0.663060501944643,0.5522367755550517,0.0
0.461480740370185,0.539654741055792,0.8111083312484364,0.0,0.0,0.412571289045468
0.5790395197598799,1.0000000000000002,0.69402051538654,0.94585520693444,0.0,0.1169576364302283
0.5272636318159079,0.4733550162621968,0.6499874906179636,1.0,0.732739766642831,0.5759370040288121
1.0,0.344258193645234,0.8141105829372031,0.9099464569126392,0.1137223782199975,0.1060920522524722
0.6835917958979489,0.906680010007506,0.7755816862646987,0.2419118544744231,0.0,1.0
0.5990495247623812,0.5466599949962473,0.5331498623967977,0.052817552365837,1.0,1.0
0.5030015007503751,0.4998749061796348,0.7528146109582188,0.500687165355704,0.4942323456058042,0.5004429949247432
0.5025012506253126,0.5001250938203654,0.7528146109582188,0.5007482079634442,0.4942009522646807,0.5005336867991
0.5027513756878439,0.500375281461096,0.7528146109582188,0.5005947294068402,0.494171302998064,0.5004429949247432
0.5305152576288144,0.618213660245184,0.6865148861646235,0.4609780769834487,0.4307776828226102,0.5325514065960898
0.9997498749374686,0.2982236677508132,0.0,0.2404014859514798,0.3966095191586585,0.9729424281005284
0.4022011005502751,0.6619964973730299,0.6394796097072806,1.0,0.6503793362052427,0.8008633168808972
1.0,0.9832374280710536,0.5101325994495873,1.0,0.5397544343094337,1.0
0.6765882941470734,0.4345759319489618,0.6174630973229923,0.4896070600136037,1.0,0.888140293353332
0.4489744872436217,0.6802601951463599,0.8248686514886165,0.4085738702757382,0.2844271587282209,0.6333937945829046
0.0,0.1118338754065549,0.5824368276207157,1.0,0.0,1.0
0.7863931965982991,0.6007005253940457,0.4070552914686015,1.0,0.0,0.0077367145124439
0.5877938969484742,0.3297473104828622,0.9639729797348012,0.7965606850724662,0.4219422013708426,0.4475330066100423
0.5520260130065032,0.5271453590192646,0.7910933199899925,0.5876728813854928,0.5070809424978635,0.5356802762614019
0.48224112056028,0.3677758318739055,0.7763322491868903,0.0,0.4447110940579382,0.3202295202051032
0.745872936468234,0.5168876657493121,0.6512384288216163,0.2216614053752376,0.4100074995203795,1.0
0.4484742371185592,0.6502376782586942,0.6277207905929448,0.397798977972339,0.3407101871391946,1.0
0.4857428714357178,0.9079309482111586,0.6449837378033526,0.5904808413415421,0.4973594711966095,0.0
0.5025012506253126,0.4998749061796348,0.7528146109582188,0.5007168146223206,0.4941852555941189,0.5004429949247432
0.5027513756878439,0.4998749061796348,0.7530647985989494,0.5006714686851422,0.4941556063275023,0.5005650801402236
0.0380190095047524,1.0000000000000002,1.0000000000000002,0.0,1.0,1.0
0.9997498749374686,1.0000000000000002,0.0,0.0,1.0,0.0
0.5030015007503751,0.5001250938203654,0.7528146109582188,0.5007325112928824,0.4942166489352425,0.5004272982541814
0.3634317158579289,0.4741055791843884,0.5799349512134102,0.5132915918168024,1.0,0.8921534087936236
0.0002501250625313,1.0000000000000002,1.0000000000000002,0.202569021748609,1.0,0.4630849189877392
0.5225112556278139,0.5266449837378034,0.7553164873655243,0.5832464202870746,0.5423792664422624,1.0
0.5210105052526263,0.5148861646234677,0.7663247435576683,0.5345047700437763,0.5362436123271186,0.7295655510403405
0.98224112056028,0.7810858143607707,0.6312234175631725,0.4065594642203115,0.8021766049845649,0.0915953049514275
0.263631815907954,0.4275706780085065,0.4838628971728797,0.6710413868880478,0.0,0.1904686328199941
0.6218109054527263,0.4475856892669503,0.6214660995746811,0.499389573922598,0.9985349774142352,0.5696792646981879
0.5317658829414706,0.5384038028521393,0.7157868401300977,1.0,0.7461080977379353,0.4086959554912186
0.6570785392696348,0.2877157868401302,0.8909181886414812,0.4805884507386155,0.2602856794042242,0.5434780333815861
0.7048524262131064,0.7380535401551165,0.2616962722041531,0.0,1.0,1.0
0.6070535267633816,0.5223917938453841,0.7710783087315488,0.2760503688717582,0.5802867258489283,0.0
0.9384692346173084,0.263447585689267,0.6199649737302978,0.6242984460296144,0.3663166890489562,0.3473324380417532
0.289144572286143,0.4671003252439331,0.6972729547160371,0.7996424647260931,1.0,0.8012452691979002
0.5025012506253126,0.4998749061796348,0.7528146109582188,0.5007168146223206,0.4941556063275023,0.5005040375324834
0.8276638319159579,1.0000000000000002,0.8976732549412061,0.2978722291016272,0.3833318799379109,0.072426182046497
0.372936468234117,0.6825118839129348,0.7703277458093571,0.4453511694019568,0.4379039712576521,0.0
0.5142571285642821,0.6157117838378785,0.8536402301726296,0.0,0.2270785007935539,0.6509130230043427
0.5030015007503751,0.5001250938203654,0.7525644233174882,0.500763904634006,0.4942166489352425,0.5004726441913598
0.6070535267633816,0.0710532899674756,0.4000500375281461,0.6245879623977536,0.6238101051676928,0.2880757625965781
0.0015007503751875,0.5298974230673006,0.7703277458093571,0.2064757486439821,0.0,0.3626994785217224
0.4179589794897448,0.7383037277958471,0.7570678008506382,0.1654097703053874,0.2431484032997889,0.6840748556778345
0.4144572286143071,0.5153865399049289,0.7255441581185891,0.4839614908348885,0.4933167064897012,0.3771665765561505
0.7788894447223611,0.4310733049787342,0.6397297973480112,0.5789577410746987,0.6538884141130509,0.0
0.4474737368684341,0.4696022016512385,0.5471603702777084,0.5502694595113103,0.0,0.1374522559603746
0.5025012506253126,0.4998749061796348,0.7530647985989494,0.5005807768107854,0.4942009522646807,0.5005040375324834
0.5417708854427213,0.0865649236927696,0.6725043782837129,0.5263093639360273,0.391970280970403,0.4708059368296213
0.5015007503751875,0.2674505879409558,0.5826870152614462,0.5365488253658196,0.4745609292428973,0.510255158100354
0.3031515757878939,0.7060295221416064,0.6339754816112085,0.8362837260407765,0.6251983884751556,1.0
0.5027513756878439,0.4998749061796348,0.7525644233174882,0.500687165355704,0.4942619948724209,0.5004569475207981
0.5027513756878439,0.5001250938203654,0.7525644233174882,0.5006714686851422,0.4941556063275023,0.5005493834696618
0.5107553776888444,0.5051288466349764,0.6920190142606957,0.0,0.344051833894344,0.4737516786717128
0.7876438219109554,0.4663497623217414,0.7335501626219666,0.5266599229119068,0.9980466365523136,0.2619948724209498
0.2803901950975487,0.0480360270202652,0.9582186639979986,0.8008336676142804,0.0,1.0
0.2901450725362681,0.4130597948461347,0.6117087815861897,0.5078291504613077,0.4988715837940596,0.5113696217102395
0.5027513756878439,0.4998749061796348,0.7530647985989494,0.5006261227479638,0.4942166489352425,0.5005197342030452
0.5667833916958479,0.2631973980485365,0.8864148111083314,0.4703018992971379,0.6965728935940143,0.3462493677729912
0.5587793896948473,0.5686765073805355,0.597197898423818,1.0,0.4225526274482446,0.5067757294591625
0.5880440220110055,0.3777833375031275,0.923692769577183,0.0,0.4184017301219108,0.643237351099639
0.5022511255627813,0.5001250938203654,0.7528146109582188,0.5006261227479638,0.4941556063275023,0.5004569475207981
0.5710355177588794,0.4018013510132601,0.7873405053790343,0.3804785740446832,0.5077681078535675,0.6149589270453634
0.6170585292646322,0.4718538904178135,0.7900925694270704,0.4330362593089977,0.4869525786141584,0.9074594066658528
0.5025012506253126,0.4998749061796348,0.7528146109582188,0.5007168146223206,0.4942462982018591,0.5004116015836196
0.8044022011005503,0.4115586690017514,0.6234676007005255,0.5292551057781189,0.7804750858956695,0.6463487800198824
0.2923961980990495,0.6424818613960472,0.7137853390042533,0.4646109841812442,0.4144636098854143,0.4673718541256082
0.2311155577788894,0.5751813860395298,0.8576432324243184,0.1183319671416363,0.9288400160454856,0.0
0.284392196098049,0.3982987240430324,0.5153865399049288,0.5328862689014074,0.4891954584299841,0.5081500601705705
0.0,0.0,0.339254440830623,0.9397195528192964,0.2887158379405968,1.0
0.9997498749374686,0.0,0.3412559419564674,0.5446378429286499,0.361051328112737,0.4809547063850568
0.3431715857928964,0.5016262196647487,0.8186139604703528,0.5219142961787328,0.4514554301759771,0.8028323769991454
0.4707353676838419,0.2201651238428822,0.7398048536402303,0.8577253780281493,0.6165006889094302,0.5535343669881577
0.4712356178089044,0.5804353264948713,0.6885163872904679,1.0,0.800115108917453,0.5083785339309695
0.6190595297648823,0.1783837878408807,0.8418814110582938,0.0667649161972199,0.30171791338926,0.565071419851056
0.0,0.6044533400050038,0.1991493620215161,0.307150705478138,0.6096011301602804,0.9633587386853166
0.8694347173586793,1.0000000000000002,0.0,0.4856549871810524,0.5898547185935783,0.4951619373179622
0.5715357678839419,0.4761070803102328,0.7730798098573932,0.4982454610460959,0.5046549348588172,0.4441163646510979
0.4524762381190594,0.7107830873154868,0.5494120590442833,1.0,0.642244972705234,0.5548616076878804
0.5027513756878439,0.5001250938203654,0.7530647985989494,0.5006261227479638,0.4942462982018591,0.5005197342030452
0.4454727363681841,0.636477358018514,0.6765073805354016,0.780047787641488,0.5674974274901023,0.4649458464865619
0.5027513756878439,0.5001250938203654,0.7530647985989494,0.5006557720145804,0.4941556063275023,0.5004726441913598
0.0,1.0000000000000002,0.4415811858894171,1.0,0.9658161396654864,0.403690461656522
0.4509754877438718,0.5138854140605456,0.740555416562422,0.4951322880513455,0.3921830580602403,1.0
0.4099549774887443,0.5486614961220917,0.751563672754566,0.499694786961299,0.5022742731569493,0.2118021521879414
0.5067533766883441,0.5724293219914938,0.7563172379284464,0.6062141374679526,0.4337687706018801,0.9997104836318608
0.4932466233116557,0.427820865649237,0.6172129096822618,0.536519176099203,0.0,0.1862863421525367
0.6845922961480739,0.4681010758068553,0.727795846885164,0.4296021766049845,0.3868113085791025,0.0
0.7126063031515757,1.0000000000000002,1.0000000000000002,0.0,0.7586061356541152,0.0
0.0,0.6067050287715788,0.7528146109582188,0.3649127090709315,0.7285278267087569,0.0
0.7183591795897948,0.4368276207155367,0.6755066299724795,0.8640738092331304,0.0,0.3554354082006383
0.3291645822911455,0.2847135351513636,0.8541406054540908,0.7499851753666916,0.6705373493555644,0.5397683869054886
0.8866933466733365,0.4593445083812861,0.7808356267200401,0.5290562812843365,0.5074628948148665,0.0
0.8559279639819909,0.4691018263697775,0.380785589191894,0.7111167309067443,0.0,0.0
0.3864432216108053,0.7873405053790344,0.9949962471853891,0.0852608263425013,1.0,0.0
0.4922461230615307,0.5414060545409058,0.7885914435826871,0.4150129933550761,0.4999686066588765,0.3377330519559796
0.9997498749374686,0.0,0.5073805354015513,0.6796326979088546,0.3149484625983222,0.8608385510228997
0.5225112556278139,0.6052039029271955,0.7260445334000502,0.5662765753352983,0.482847027225003,0.0
0.5660330165082541,0.6214660995746811,0.7245434075556669,0.5124980379161798,0.5466522489840766,0.0
0.5027513756878439,0.5001250938203654,0.7528146109582188,0.500687165355704,0.4942619948724209,0.5005040375324834
0.4417208604302151,0.4550913184888668,0.6592444333249938,1.0,0.6021399794199208,0.6032387463592445
0.7351175587793896,0.6189642231673756,0.7480610457843384,0.4268413066606205,0.4439628860944939,1.0
0.6350675337668834,0.4480860645484114,0.7563172379284464,0.5687043270488515,0.5059664788879781,0.2753318101749307
0.829664832416208,0.0,1.0000000000000002,0.4784519594677084,1.0,0.0
0.0,0.0,0.0,0.1223136892408043,0.0787746132514781,0.99096569405445
0.4424712356178089,0.6715036277207908,0.7548161120840631,0.4766363779060641,0.424825156530687,0.6214137467952631
0.0,1.0000000000000002,0.8581436077057795,0.1280220451017667,0.983014458377662,0.8704379371086732
0.5027513756878439,0.5001250938203654,0.7528146109582188,0.5006557720145804,0.494171302998064,0.5004569475207981
0.4829914957478738,0.5804353264948713,0.7645734300725546,1.0,0.7486108446552837,0.4853201248757346
0.4867433716858428,0.3812859644733551,0.7037778333750314,0.0,0.0630256204545058,0.3416397788513525
0.5022511255627813,0.4998749061796348,0.7528146109582188,0.5006418194185256,0.494171302998064,0.5005493834696618
0.4574787393696848,0.4585939454590944,0.7440580435326496,1.0,0.5009470324572266,0.38554511048712
0.5025012506253126,0.5001250938203654,0.7530647985989494,0.5007028620262658,0.4941242129863787,0.5005040375324834
0.5027513756878439,0.4998749061796348,0.7530647985989494,0.5006418194185256,0.4941852555941189,0.5005650801402236
0.0,1.0000000000000002,0.7185389041781337,1.0,0.6438774264436576,1.0
0.5030015007503751,0.5001250938203654,0.7530647985989494,0.5006557720145804,0.4941399096569405,0.5004569475207981
0.9997498749374686,0.4005504128096073,0.3972979734801101,0.2474667317787816,0.9565376632889756,0.0
0.2978989494747373,0.5389041781336004,0.4463347510632975,0.4968414810680712,0.1328583637092976,0.3361773374958579
0.2971485742871435,0.5694270703027272,0.6805103827870904,0.4284737603990443,0.5200062786682247,0.5420130107958212
0.3054027013506752,0.4728546409807357,0.6449837378033526,0.2276592776043393,1.0,0.7751190330850934
0.4609804902451225,0.3562672004003003,0.7070302727045286,0.9999546540628216,0.7197847812058531,0.5614088633866439
0.954977488744372,0.4928696522391795,0.7613209907430574,0.2538919022620646,0.9941242129863788,0.8000697629802744
0.4779889944972486,0.6409807355516639,0.6012009006755068,1.0,0.5739382946439472,0.4389416955892355
0.5032516258129064,0.4998749061796348,0.7528146109582188,0.5007028620262658,0.4941556063275023,0.5005336867991
0.533016508254127,0.3114836127095323,0.8583937953465101,1.0,0.5782723197935016,0.593089976803809
0.5032516258129064,0.4998749061796348,0.7530647985989494,0.5007028620262658,0.4941852555941189,0.5005197342030452
0.5027513756878439,0.5001250938203654,0.7530647985989494,0.500687165355704,0.4942166489352425,0.5005040375324834
0.2431215607803902,0.4993745308981737,0.1938954215661746,0.9028655144147758,0.0,0.0
0.3951975987993996,0.6627470602952216,0.6044533400050038,0.6957479463522682,0.3355198214067705,1.0
0.4572286143071535,0.7247935951963975,0.6209657242932201,0.7824737952805343,0.503753248338769,0.5529535901773723
0.5025012506253126,0.4998749061796348,0.7528146109582188,0.5007168146223206,0.4942166489352425,0.5004569475207981
0.5027513756878439,0.5001250938203654,0.7525644233174882,0.5007028620262658,0.4941399096569405,0.5005040375324834
0.5067533766883441,0.6805103827870904,0.6172129096822618,0.836466853863997,0.6096935661091442,0.6213980501247013
0.790145072536268,0.6447335501626221,0.5654240680510384,1.0,0.0,0.0
0.4912456228114056,0.560670502877158,0.6157117838378785,1.0,0.9051694368383416,0.5817360517641313
0.125312656328164,0.7400550412809609,0.6990242682011509,0.4323944398904721,0.5286132863595933,0.0079198423356646
0.5672836418209104,1.0000000000000002,0.7415561671253441,0.0,0.349789839021923,1.0
0.7378689344672336,0.3397548161120841,0.5721791343507632,0.7139246908627936,0.9882501700472645,0.6597485044561103
0.2051025512756378,0.0010007505629222,0.1861396047035277,0.6628006348431205,0.0174581858136979,0.7762178000244171
0.5542771385692846,0.8974230673004755,0.2927195396547411,0.0,0.3329717285522438,0.2645290126794216
0.8811905952976486,0.464348261195897,0.9952464348261196,1.0,0.0054170954183162,0.092251076966008
0.5130065032516258,0.7297973480110085,0.5754315736802603,0.7623907773340077,0.6282208695955491,0.4921255036015138
0.2558779389694847,0.4083062296722543,0.5691768826619966,0.5784397509461604,0.0,0.3022376475923051
0.2241120560280139,0.0367775831873906,0.2702026519889918,0.6531559028201684,0.2328932451994349,0.0
0.5795397698849424,0.2752064048036028,0.6915186389792345,0.0,0.4990233182761567,0.6300817970943718
0.497248624312156,0.623217413059795,0.3052289216912685,1.0,0.5991331949700891,0.914479306555976
0.7071035517758879,0.3825369026770079,0.5273955466599951,0.5530006801890577,0.4430019010412125,0.6661736749393934
0.8869434717358677,0.4498373780335252,0.6762571928946711,0.461025166995134,0.556342326944207,0.4252681514554302
0.7728864432216107,0.3592694520890669,0.4926194645984489,0.5736784275424246,0.4083907424525175,0.5514746149955526
0.4659829914957478,0.2419314485864399,0.6917688266199651,0.2789804140432879,0.8568236915081012,0.5053717494811378
0.248624312156078,0.4243182386790093,0.8526394796097074,0.5092941730470726,0.6713465999267488,0.0
0.368184092046023,0.4393294971228422,0.6397297973480112,0.5513525297800722,1.0,0.8021155623768247
0.849424712356178,0.4060545409056794,0.6377282962221668,0.427038387079896,0.3653714006662364,0.3264558661946038
0.5025012506253126,0.5001250938203654,0.7528146109582188,0.5006557720145804,0.4941852555941189,0.5005040375324834
0.5205102551275638,0.5559169377032775,0.0725544158118589,0.9506322270087378,0.5256832411880635,0.7368156687653696
0.6080540270135066,0.362521891418564,0.829121841381036,0.4796571149519507,0.2388754207579748,0.3540628215637372
0.4582291145572786,0.5686765073805355,0.6577433074806106,0.0,0.3360238589392539,0.3894204440413694
0.4767383691845922,0.5701776332249189,0.7345509131848887,0.6029335333205434,0.4899279697228665,0.810905697891414
0.7398699349674837,0.4440830622967227,0.7312984738553917,0.9212707326857004,0.0,0.1636395346809215
0.8856928464232114,1.0000000000000002,1.0000000000000002,0.1606798402427751,0.6840591590072728,0.0
0.5027513756878439,0.4998749061796348,0.7528146109582188,0.5007028620262658,0.4941556063275023,0.5003976489875648
0.5027513756878439,0.5001250938203654,0.7528146109582188,0.5005336867991,0.4941852555941189,0.5005040375324834
0.3284142071035517,0.4686014510883163,0.5564173129847386,0.2982088354814518,0.0,0.0
0.5630315157578789,0.0275206404803603,0.3827870903177384,0.0244013464255192,0.7491148821877671,0.5654219788269355
0.9479739869934968,1.0000000000000002,0.6772579434575933,0.0,1.0,0.0039991628442367
0.5025012506253126,0.5001250938203654,0.7528146109582188,0.500610426077402,0.4940945637197621,0.5005197342030452
0.5030015007503751,0.500375281461096,0.7523142356767576,0.500687165355704,0.4942009522646807,0.5004429949247432
0.4582291145572786,0.4716037027770829,0.7002752064048037,1.0,0.9189197202504492,0.4417339588747231
0.2656328164082041,0.3782837127845885,0.6159619714786091,0.462793658545093,0.6095261349564853,0.4582311596351396
0.4669834917458729,0.4553415061295973,0.7573179884913686,0.5231054990669202,0.4881734307689624,0.4324258332315956
0.2941470735367684,0.3770327745809358,0.6294721040780586,0.5650260739138776,0.9638174302806216,0.6544674468493294
0.3946973486743371,0.505879409557168,0.7555666750062549,0.495559586305527,0.504517152972775,0.2963165146415055
0.4364682341170585,0.2977232924693521,0.94971228421316,0.0,0.4505101417932574,0.6860421717215759
0.9444722361180587,0.5351513635226421,1.0000000000000002,0.2718837748748627,0.0637895250885117,0.0
0.621560780390195,0.4468351263447587,0.7633224918689018,0.6031620070809425,0.0,0.2509304637494114
0.5130065032516258,1.0000000000000002,0.2259194395796848,0.0302771334391405,0.2944695397387377,0.647677764794112
1.0,0.9997498123592696,0.2076557418063548,0.0008092505711844,1.0,0.0041352006557719
0.5030015007503751,0.4998749061796348,0.7530647985989494,0.5005197342030452,0.494171302998064,0.5004883408619216
0.0450225112556278,0.3550162621966476,0.0015011258443833,0.6380469853672148,0.2232624657725378,0.2509758096865898
0.3786893446723361,0.2827120340255192,1.0000000000000002,0.2642220555662138,0.3380382649946806,0.0
0.5030015007503751,0.5001250938203654,0.7528146109582188,0.5006261227479638,0.494171302998064,0.5005336867991
0.5022511255627813,0.5001250938203654,0.7528146109582188,0.5007325112928824,0.4942462982018591,0.5004726441913598
0.5027513756878439,0.4998749061796348,0.7530647985989494,0.5007325112928824,0.4941852555941189,0.5005493834696618
0.5027513756878439,0.4998749061796348,0.7530647985989494,0.5005947294068402,0.4942323456058042,0.5005040375324834
0.7758879439719859,0.4610958218663999,0.5994495871903929,0.3788304236356977,1.0,0.6557650382824354
0.456728364182091,0.5619214410808108,0.685764323242432,1.0,0.6200254634878002,0.4879135636674399
0.5025012506253126,0.4996247185389043,0.7535651738804104,0.5006261227479638,0.494171302998064,0.5005040375324834
0.4402201100550275,0.620465349011759,0.7455591693770329,0.5567853218689502,0.5518408706419938,0.9995116591380784
0.0,1.0000000000000002,1.0000000000000002,0.8526134956485341,0.0,1.0
0.2518759379689844,0.4563422566925195,0.63922942206655,0.5625233269965293,0.5284144618658109,0.5435844219265047
0.9322161080540268,0.4253189892419315,0.8371278458844135,0.8576189894832307,0.832560126968624,0.0
0.5030015007503751,0.4998749061796348,0.7530647985989494,0.5007168146223206,0.4941852555941189,0.5004883408619216
0.5402701350675337,1.0000000000000002,0.8618964223167377,0.6816017580271029,0.0017248896872874,0.2920121387585678
0.5370185092546272,0.5228921691268452,0.751063297473105,0.486448541081675,0.5000453459371784,0.6391928423182238
1.0,0.526895171378534,0.7282962221666252,0.5133526344245426,0.7273837138322549,0.2269564155780735
0.5232616308154077,0.5123842882161622,0.7765824368276208,0.5846817936062229,0.4181261663498264,1.0
0.452976488244122,0.3430072554415813,0.8068551413560172,1.0,0.7038980065228386,0.4746062751800757
0.5027513756878439,0.4998749061796348,0.7530647985989494,0.5005493834696618,0.4942009522646807,0.5005336867991
1.0,0.0,0.6554916187140356,0.006653644243682,0.7447965537087744,0.0
0.577288644322161,0.6767575681761322,0.5904428321240932,0.0,0.3662259971745993,0.3737795838638227
0.5025012506253126,0.5001250938203654,0.7530647985989494,0.5005807768107854,0.4941242129863787,0.5004429949247432
0.6495747873936968,0.474355766825119,0.435576682511884,0.9929801001098768,0.0,0.0169088023440361
0.9362181090545272,0.0,0.4438328746559921,0.454523257233549,0.7110242949578807,0.1239321903831731
0.5027513756878439,0.5001250938203654,0.7530647985989494,0.5006418194185256,0.4941242129863787,0.5004726441913598
1.0,0.0,0.5446584938704029,0.2925004796204894,0.4322113120672515,0.0
0.4977488744372185,0.6432324243182388,0.2909682261696272,1.0,0.4999546540628216,0.6743533843765805
0.4097048524262131,0.4403302476857644,0.8308731548661497,0.6137066815494358,0.356215009505206,0.9401468510734778
0.4242121060530265,0.7915936952714537,0.8128596447335503,0.1486230531768317,0.2800634843120498,0.5474597554807541
1.0,1.0000000000000002,0.8251188391293471,0.470059472940684,0.5463766852119922,0.6639900936568011
0.9939969984992496,0.5954465849387042,0.8891668751563675,0.9880809948200988,0.0829272546523187,0.4038125468720023
0.5055027513756878,0.5989492119089319,0.6592444333249938,0.5197621082372639,0.4979088546662713,1.0
0.3579289644822411,1.0000000000000002,0.589942456842632,0.8016882641226433,0.6449604967124195,0.0
0.4104552276138069,0.7267950963222418,0.4783587690768077,1.0,0.4254512792786508,0.7035317508763974
0.8601800900450224,0.3855391543657744,0.6067050287715787,0.4717826185534646,0.3125067582887141,0.3458674154559883
0.5027513756878439,0.4998749061796348,0.7530647985989494,0.500687165355704,0.4942166489352425,0.5005493834696618
0.5027513756878439,0.4998749061796348,0.7530647985989494,0.5005807768107854,0.494171302998064,0.5004726441913598
0.4112056028014006,0.4776082061546161,0.6599949962471855,1.0,0.6897971641348518,0.6885763119800478
0.6295647823911955,0.3565173880410309,0.8068551413560172,0.5472469783909168,0.0,0.1958089889600084
0.6543271635817909,0.4911183387540657,0.7633224918689018,0.3670195510752219,0.4033381586061356,0.0991331949700891
1.0,0.3159869902426821,0.7232924693520142,0.5149397422257879,1.0,0.0
0.4767383691845922,0.5929447085313987,0.7490617963472606,0.4322270087378133,0.4943997767584631,0.0
0.3571785892946473,0.4495871903927947,0.8073555166374783,0.6044439018434867,0.5716640214869979,1.0
0.5477738869434716,0.5714285714285716,0.2459344508381286,1.0,0.5670858259064827,0.5885885205015958
0.9997498749374686,0.0,0.3007255441581186,0.0,0.7022341594432914,0.0
0.7736368184092045,0.4921190893169879,0.6479859894921192,0.2822924115318206,1.0,1.0
0.7378689344672336,0.5123842882161622,0.628721541155867,0.9743167588119364,0.0226782008127386,0.3104016603589306
0.5027513756878439,0.4998749061796348,0.7528146109582188,0.5006261227479638,0.4941852555941189,0.5004726441913598
0.7038519259629814,0.4475856892669503,0.6349762321741307,0.4259553168111342,1.0,0.7374714407799501
0.0,0.0,0.1676257192894671,0.2771491358110818,0.091181959293301,1.0
1.0,0.2384288216162122,0.8213660245183889,0.3663620349861346,0.6002773078465912,0.2107801245269198
0.4832416208104051,0.5481611208406306,0.7480610457843384,0.5035108219823151,0.4997104836318607,0.0
0.9997498749374686,0.4681010758068553,0.0195146359769827,0.4583689415211818,0.2915237978966462,1.0
0.4669834917458729,0.4283212409306981,0.8203652739554668,0.5118265692310375,0.3295533425187924,0.7400648795716552
0.3621810905452726,0.6122091568676509,0.7490617963472606,0.5228752812320142,0.5452482690060519,0.0053874461516996
0.9252126063031514,0.451088316237178,0.8856642481861398,0.1995482847027225,0.9972687793222528,0.7760800181383749
0.5030015007503751,0.4998749061796348,0.7528146109582188,0.5006261227479638,0.494171302998064,0.5005197342030452
0.9464732366183092,0.427820865649237,0.9331998999249438,0.4853340774717896,0.5223729877740377,0.0
0.4719859929964982,0.6224668501376034,0.6930197648236178,1.0,0.7251565306869909,0.3864921429443466
0.1593296648324161,0.01826369777333,0.1711283462596948,0.5439820709140695,0.1079529797512949,0.0
0.4599799899949974,0.5499124343257444,0.5984488366274707,1.0,0.7516786717128556,0.3234647784153339
0.7006003001500749,1.0000000000000002,0.8561421065799351,0.3157123672323281,0.3628529570783264,0.5161448977100301
0.5307653826913457,0.3004753565173881,0.7750813109832375,0.509873205783351,0.4764375534122818,0.2528541779304812
0.672336168084042,0.5649236927695773,0.743807855891919,0.4070478050822331,0.4640459040410206,1.0
0.5027513756878439,0.4998749061796348,0.7525644233174882,0.500687165355704,0.4942009522646807,0.5004726441913598
0.8144072036018009,0.5248936702526896,0.7800850637978485,0.9152728604565988,0.1741388632122364,0.3226258785775329
0.4229614807403701,0.5351513635226421,0.5263947960970728,0.2496328723163053,1.0,0.6568027626140189
0.3591795897948974,0.6437327995997,0.777082812109082,0.9287475800966216,0.3280429739958491,0.6016969844951776
0.2778889444722361,1.0000000000000002,0.0,0.9769712402113818,0.5184191708669794,0.647906238554511
0.5040020010005002,0.5819364523392546,0.7633224918689018,0.6162704710745243,0.5501927202330084,1.0
0.5027513756878439,0.5001250938203654,0.7533149862396799,0.5006714686851422,0.4941852555941189,0.5005336867991
0.9997498749374686,0.9909932449337004,0.910933199899925,1.0,0.4987024085668939,1.0
0.666833416708354,0.4868651488616464,0.6980235176382288,1.0,0.0,0.3061286778171164
0.7698849424712355,0.2176632474355768,0.8083562672004004,0.5761201318520327,0.4576521268988611,0.6122416589636709
0.4167083541770885,0.4958719039279461,0.3069802351763823,1.0,0.518222090447704,0.7434065263268047
0.5155077538769384,0.4373279959969979,0.7297973480110084,1.0,0.7221340495665974,0.3624413554947067
0.9997498749374686,0.8931698774080562,0.8706529897423069,1.0,0.0,0.0
0.3761880940470234,0.593945459094321,0.7430572929697274,0.5004429949247432,0.5141775816662888,0.2008458761358285
0.4132066033016508,0.8854140605454093,0.4731048286214662,0.5681078535675044,0.7348623053176832,0.6739260861223991
0.3529264632316158,0.4188141105829373,0.586690017513135,0.3279976280586707,1.0,0.6825173971432059
0.5880440220110055,0.2261696272204154,0.795346509882412,0.5696339187610094,0.5121317822697385,0.1943596630448053
0.5247623811905953,0.5481611208406306,0.7002752064048037,0.459574097005424,0.4511659138078379,0.9743167588119364
0.528264132066033,0.7855891918939206,0.4585939454590944,0.8868880478574045,0.6891256954497096,0.5164361581526763
0.3346673336668334,0.4851138353765325,0.3770327745809357,0.3337356331862497,1.0,1.0
0.5025012506253126,0.4998749061796348,0.7528146109582188,0.5005650801402236,0.494171302998064,0.5004569475207981
0.4117058529264632,0.4353264948711535,0.8368776582436829,0.9592235380295446,0.4888292027835429,0.487746132514781
0.9947473736868432,0.3162371778834126,0.7908431323492621,0.5800268587474057,0.450234578021173,9.06918743569518e-05
0.5025012506253126,0.5001250938203654,0.7528146109582188,0.5006557720145804,0.494108516315817,0.5004726441913598
0.6168084042021009,0.4681010758068553,0.7463097322992245,0.5262640179988489,0.4937736540104993,0.5166349826464587
0.5025012506253126,0.4998749061796348,0.7530647985989494,0.5006418194185256,0.4940945637197621,0.5004726441913598
0.5030015007503751,0.4998749061796348,0.7530647985989494,0.500687165355704,0.4942166489352425,0.5004883408619216
0.5025012506253126,0.5001250938203654,0.7528146109582188,0.5006557720145804,0.4941852555941189,0.5004726441913598
0.5027513756878439,0.4998749061796348,0.7528146109582188,0.5007028620262658,0.4941852555941189,0.5005493834696618
0.5075037518759379,0.5421566174630975,0.7723292469352014,0.5214556045834278,0.4707762875630047,1.0
0.0,0.9977483112334252,0.9947460595446588,0.0385178854840678,1.0,0.0
0.5360180090045021,0.5381536152114087,0.8116087065298976,0.600903430594555,0.5642778659504334,0.3726947695205539
0.5027513756878439,0.4998749061796348,0.7530647985989494,0.5006714686851422,0.4941852555941189,0.5004429949247432
0.5102551275637819,0.4893670252689518,0.7583187390542908,0.4658004429949247,0.448326560510665,0.5263250606065891
0.7328664332166082,0.7740805604203154,0.0065048786589942,0.2296422903186424,1.0,1.0
0.7183591795897948,0.5231423567675758,0.7588191143357519,0.6749638104539826,0.5568149711355669,0.0
0.5440220110055027,0.508631473605204,0.7955966975231425,0.5934405357796885,0.4746673177878159,1.0
0.0,0.5766825118839131,0.2939704778583938,0.4102063240141619,1.0,1.0
0.5027513756878439,0.5001250938203654,0.7528146109582188,0.500610426077402,0.4942009522646807,0.5005197342030452
0.9997498749374686,0.1090818113585189,0.7933450087565675,0.0771282069169995,0.902392870223416,0.0
0.4997498749374687,0.4655991993995498,0.7498123592694522,0.4907215236234892,0.4889059420618449,0.5904965380121039
0.3984492246123061,0.5996997748311235,0.7465599199399551,0.5171233235083803,0.500076739278302,0.2426286690967438
0.4447223611805903,0.4751063297473106,0.524643482611959,0.093166716082111,0.7718523815337391,0.7051642046148212
0.4947473736868433,0.732299224418314,0.4658493870402803,1.0,0.6692868479341437,0.5967071873310428
1.0,0.0,0.5073805354015513,0.5471702391126149,0.6237490625599525,0.883637092976612
0.5025012506253126,0.5001250938203654,0.7530647985989494,0.500687165355704,0.4942009522646807,0.5004883408619216
0.5037518759379689,0.714535901926445,0.185389041781336,0.9925371051851336,0.6362174512095157,0.713450302596927
0.5030015007503751,0.4998749061796348,0.7525644233174882,0.5007028620262658,0.4942323456058042,0.5004569475207981
0.5447723861930965,0.933700275206405,0.993495121341006,0.5814308387254303,0.8949456720791111,0.0
0.2201100550275137,0.4135601701275958,0.3322491868901677,0.338237089488463,1.0,0.8348797460627517
0.7573786893446722,0.3905429071803854,0.6112084063047286,0.5364267401503392,0.4448331792734186,0.3012138758567766
0.408704352176088,0.5196397297973482,0.7653239929947462,0.5129863787781014,0.500151734482097,0.5667492195266581
0.5027513756878439,0.5001250938203654,0.7530647985989494,0.5006418194185256,0.4941556063275023,0.5004726441913598
0.3561780890445222,0.4495871903927947,0.4390793094821116,0.329126044264611,0.0,0.0
0.5182591295647824,0.6142106579934953,0.7605704278208658,0.3913895041596177,0.4861747213840975,0.9523257233549016
0.5307653826913457,0.654741055791844,0.7628221165874407,0.4285801489439629,0.7305422327641837,0.2671381481416886
0.9997498749374686,0.740555416562422,0.0,1.0,0.2261942550185744,0.99899366900954
0.2868934467233617,0.4283212409306981,0.4323242431823869,0.5894431170099587,0.2513577620035928,0.5158553813418909
0.4842421210605302,0.38353765323993,0.696772579434576,0.9994052705931598,0.6612745696496154,0.5466662015801315
0.6415707853926963,0.4681010758068553,0.7973480110082563,0.3975705042119399,0.4574689990756405,0.9504944451226957
0.4757378689344672,0.4933700275206406,0.4788591443582687,0.4412927080244868,1.0,1.0
0.5027513756878439,0.4998749061796348,0.7525644233174882,0.5006261227479638,0.4941399096569405,0.5004429949247432
0.5032516258129064,0.4996247185389043,0.7528146109582188,0.5007028620262658,0.4942009522646807,0.5004726441913598
0.4494747373686842,0.4540905679259446,0.7815861896422318,0.4787728691769712,0.4750789193714355,0.0115980954706385
0.4979989994997498,0.6374781085814363,0.6459844883662749,0.9998936114550814,0.7549906692013884,0.5678183371993651
0.5027513756878439,0.500375281461096,0.7525644233174882,0.5006418194185256,0.494171302998064,0.5004883408619216
0.3976988494247123,0.78533900425319,1.0000000000000002,0.8611280673910389,0.3314770566998622,1.0
1.0,0.0,0.5441581185889418,0.6626332036904616,0.9112597450163072,0.983014458377662
0.3039019509754877,0.714535901926445,1.0000000000000002,0.3013220084762021,0.2276278842632157,1.0
0.3629314657328664,0.4308231173380036,0.6329747310482863,0.2918761009470325,0.0,0.0626907581491881
0.5027513756878439,0.5001250938203654,0.7528146109582188,0.5006261227479638,0.494171302998064,0.5004569475207981
0.417208604302151,0.4010507880910684,0.6119589692269203,0.0339710832446762,0.546774334199557,0.5421961386190418
0.4659829914957478,0.4540905679259446,0.3742807105328997,0.2773008702931789,1.0,0.7045991244745975
0.4824912456228113,0.7175381536152116,0.727795846885164,0.0,0.0361215271116382,0.4925074559185168
0.393696848424212,0.6467350512884665,0.0,0.9918656364999912,0.0,0.0
0.9997498749374686,0.9079309482111586,0.837378033525144,1.0,0.0,0.0
0.48024012006003,0.2596947710783088,0.8658994245684265,1.0,0.6823028759788619,0.5830946858049776
0.3589294647323662,0.422316737553165,0.4771078308731549,0.4043305370005406,0.999618047682997,0.7094214904860735
0.0067533766883441,0.8631473605203905,0.5108831623717789,0.4207213492160385,0.2610792333048468,0.749892739417828
0.5022511255627813,0.5001250938203654,0.7528146109582188,0.5007325112928824,0.4941242129863787,0.5004272982541814
0.5025012506253126,0.500375281461096,0.7530647985989494,0.5007028620262658,0.4942009522646807,0.5005197342030452
0.4999999999999999,0.3147360520390294,0.5836877658243684,9.06918743569518e-05,0.1661126323316532,0.9965362680293702
0.5027513756878439,0.7037778333750314,0.6124593445083814,0.7397439698623924,0.4890576765439419,0.5153984338210928
0.4514757378689344,0.4340755566675007,0.7338003502626972,0.9899890123306068,0.5485131764828993,0.6539198074541744
0.5255127563781891,0.5026269702276709,0.7418063547660747,0.5684130666062054,0.5205713588084483,1.0
0.5025012506253126,0.5001250938203654,0.7528146109582188,0.5006418194185256,0.4942009522646807,0.5004726441913598
0.3056528264132065,0.3852889667250438,0.4768576432324244,0.3881245966827703,0.9483579538517886,0.5412194568951986
0.4909954977488744,0.4906179634726046,0.994495871903928,0.0,0.3415019969653103,0.3431361947782409
0.4349674837418709,0.5116337252939707,0.6289717287965976,0.0,0.2582416240821808,0.3902453912831156
0.5152576288144072,0.5231423567675758,0.7660745559169378,0.5706716430925929,0.5221881158763102,1.0
0.6945972986493246,0.404053039779835,0.959719789842382,0.0,0.027713343914052,0.5739225979733854
0.5350175087543771,0.9239429572179136,0.3272454340755567,0.0,0.0815825732075274,0.3915272860456599
0.4479739869934967,0.4948711533650239,0.5023767825869403,0.4901721401538274,0.0,0.0
0.1063031515757879,0.3910432824618465,0.6032024018013511,0.4869211852730348,0.5520850410729546,0.6921778258367197
0.5422711355677838,0.680760570427821,0.6197147860895673,1.0,0.6209254059333414,0.6893088232729302
0.5027513756878439,0.500375281461096,0.7525644233174882,0.500687165355704,0.4941852555941189,0.5004883408619216
0.4349674837418709,0.6319739804853641,0.5879409557167877,1.0,0.6853863997069954,0.5282627273837138
0.5210105052526263,0.4873655241431074,0.7470602952214161,0.5070809424978635,0.4976036416275703,0.4901267942166489
0.1380690345172586,0.9954966224668504,0.112334250688016,1.0,0.0212271308230287,0.0039834661736749
0.1058029014507253,0.0,0.4380785589191894,0.8561225735563422,0.4160210684200429,0.0437675497497253
0.060280140070035,1.0000000000000002,0.3362521891418564,0.3594188743743133,0.3647906238554511,1.0
0.5417708854427213,0.5376532399299476,0.7638228671503628,0.2836196522315433,0.5324136247100476,0.0
1.0,0.4058043532649488,0.8413810357768328,0.0451261837905715,0.4164030207370459,1.0
0.3259129564782391,0.339254440830623,0.7915936952714537,0.1753597153670404,1.0,0.5994384080087901
0.4729864932466233,0.7230422817112836,0.5469101826369778,0.0,0.3635854683712088,0.5050822331129986
0.5022511255627813,0.5001250938203654,0.7530647985989494,0.500610426077402,0.4941399096569405,0.5005650801402236
0.5027513756878439,0.5001250938203654,0.7525644233174882,0.5006557720145804,0.4942323456058042,0.5004883408619216
0.4627313656828413,0.6922692019014263,0.4428321240930699,1.0,0.5981722099168076,0.6992273749934597
0.4594797398699349,0.5128846634976234,0.4998749061796348,0.1089157088790833,1.0,0.7780804715977467
0.369184592296148,0.1313485113835377,0.4863647735801852,0.3298289062908767,0.6889565202225438,0.0
0.5272636318159079,0.5534150612959721,0.741055791843883,0.3252507107103615,0.2821703263163402,1.0
0.4449724862431215,0.7227920940705531,0.6044533400050038,0.6130962554720337,0.4639552121666637,0.6843033294382336
0.5025012506253126,0.4998749061796348,0.7528146109582188,0.5007482079634442,0.4942009522646807,0.5004429949247432
0.6208104052026012,0.4460845634225671,0.6792594445834377,0.1405968222962485,1.0,0.6553534366988157
0.2578789394697348,0.3817863397548162,0.4793595196397299,0.5552435600048834,0.0,0.1471283813244502
0.8749374687343672,0.4598448836627472,0.7082812109081813,0.4667160821110278,1.0,0.8255716204196244
0.4779889944972486,0.0,0.927695771828872,0.5023039224235659,0.6353157646894675,0.1351483335368087
0.5030015007503751,0.4998749061796348,0.7530647985989494,0.500687165355704,0.4942166489352425,0.500610426077402
0.5495247623811905,0.7888416312234177,0.8844133099824869,0.7947590561068769,0.0,0.9996947869612988
0.0,0.7055291468601452,0.7260445334000502,0.3695362505886251,0.2176779392015627,1.0
0.4409704852426213,0.5018764073054792,0.5924443332499375,0.4694629994593369,0.0,0.2288644330885815
0.5020010005002501,0.5001250938203654,0.7530647985989494,0.500687165355704,0.4941556063275023,0.5004429949247432
0.4394697348674337,0.4560920690517889,0.7473104828621467,0.4985349774142351,0.4964438320805064,0.2005546156931824
0.313656828414207,0.4718538904178135,0.4458343757818365,0.5036782531349739,0.2448575963165146,0.2764009278476376
0.5027513756878439,0.4998749061796348,0.7525644233174882,0.5006557720145804,0.4941399096569405,0.5004726441913598
0.5275137568784392,0.5489116837628223,0.685764323242432,0.7409805186877583,0.5756474876606729,1.0
0.4932466233116557,0.7665749311983989,0.5994495871903929,0.647144077995012,0.5566632366534698,0.5957915482149397
0.1718359179589794,0.4120590442832125,0.4595946960220166,0.6554912185848579,0.2879676299771526,0.2095749690426775
0.5920460230115057,0.5404053039779836,0.720040030022517,0.5101784188220521,0.3696897291452291,1.0
0.0,1.0000000000000002,0.2529397047785839,0.9991454034916372,0.4709890646528419,0.7201196435111707
0.1033016508254127,1.0000000000000002,0.5379034275706781,0.7659783385946247,1.0,0.0
1.0,0.0572929697272955,0.6134600950713036,0.5682752847201632,0.0,0.9822976437553412
0.5025012506253126,0.4998749061796348,0.7528146109582188,0.500687165355704,0.4941556063275023,0.5005040375324834
0.512256128064032,0.3380035026269703,0.5819364523392545,0.0450808378533931,0.5227845893576574,0.5950747335926191
0.8076538269134566,0.3299974981235928,0.5601701275956968,0.9042851910633622,0.0,0.0665660917034375
0.364432216108054,0.5471603702777084,0.7445584188141107,0.5078431030573626,0.4945218619739435,0.5667195702600415
0.4207103551775887,0.7490617963472606,0.7390542907180386,0.537663288975705,0.4723790920348117,0.0
0.5295147573786892,0.2304228171128347,0.8146109582186641,0.5072187243839057,0.6020789368121806,0.5776915429827162
0.3464232116058028,0.693520140105079,0.7272954716037029,0.5069135113452047,0.5201440605542669,0.0338019080175105
0.4579789894947473,0.5669251938954217,0.7513134851138354,0.4981983710344106,0.5012051554842423,0.4959711878891466
0.7946473236618308,0.4015511633725295,0.8759069301976483,0.8862008825017005,0.0096604286935138,0.3036573242408916
0.5027513756878439,0.4998749061796348,0.7530647985989494,0.5006261227479638,0.4941242129863787,0.5004883408619216
0.4717358679339669,0.2276707530647987,0.67575681761321,0.8838673108115178,0.5164972007604165,0.4290370964647609
0.4997498749374687,0.4753565173880412,0.4138103577683263,0.8397928039485847,0.0,0.0549086976995657
0.950975487743872,0.9787340505379036,0.2429321991493621,0.5250431658440449,0.3914505467673579,0.614683363273279
0.6785892946473235,0.4065549161871404,0.5158869151863898,0.3358564277865951,1.0,1.0
0.4937468734367183,0.7275456592444335,0.6109582186639981,0.0,0.1818912743952421,0.5112318398241973
0.7878939469734867,0.3745308981736303,0.6572429321991495,0.6984198684967822,1.0,0.986677014842074
0.0302651325662831,1.0000000000000002,0.8216162121591195,0.1551406596089785,0.0145281406421682,1.0
0.5027513756878439,0.5001250938203654,0.7528146109582188,0.5007482079634442,0.494108516315817,0.5004272982541814
0.4374687343671835,0.6262196647485616,0.5238929196897674,0.0,0.2824441460139177,0.3121405026422729
0.5382691345672835,0.4148111083312485,0.5674255691768828,1.0,0.0,0.374602787031062
0.4517258629314656,0.3167375531648737,0.6422316737553166,0.0280342536233148,0.4483422571812268,0.5625529762631459
0.4524762381190594,0.4248186139604705,0.5686765073805355,0.2303434082704013,1.0,0.6859811291138357
0.5025012506253126,0.5001250938203654,0.7528146109582188,0.5006714686851422,0.4941852555941189,0.5005336867991
1.0,0.0,0.4793595196397299,0.2258279993721332,0.4605821720703908,0.9869525786141584
0.5780390195097548,0.4761070803102328,0.4841130848136103,0.4099621535832011,1.0,1.0
0.5030015007503751,0.4993745308981737,0.7530647985989494,0.5005650801402236,0.4941852555941189,0.5004569475207981
0.4959979989994997,0.4373279959969979,0.5809357017763324,0.358060240333467,0.0,0.144381463976141
0.6160580290145072,0.5704278208656494,0.7330497873405055,0.5979733854230252,0.5421193993407398,0.0
0.8721860930465232,1.0000000000000002,0.2146609957468102,0.0,1.0,0.0
0.4834917458729364,0.4901175881911435,0.7720790592944711,0.564994680572754,0.4108167500915639,1.0
0.2398699349674837,0.4335751813860397,0.4638478859144359,0.5761654777892111,0.6603135845963339,0.4860369394980554
1.0,0.8233675256442334,0.8979234425819366,0.5624622843887891,0.0010673735982001,1.0
0.3264132066033016,0.6860145108831626,0.7275456592444335,0.6302038823098522,0.5143607094895094,1.0
0.3991995997998999,0.1866399799849888,0.6467350512884664,0.5477353192528385,0.2196469993198109,0.7354413380539617
0.5055027513756878,0.1576182136602452,0.6327245434075558,0.819404572963357,0.6937195877007866,0.4402549836929034
0.5012506253126563,0.8478859144358271,0.6795096322241683,0.0,0.4946892931266023,0.3459895006714687
0.593296648324162,0.4530898173630224,0.5489116837628222,0.128921987547308,1.0,0.8246402846329595
0.48024012006003,0.3915436577433075,0.7162872154115588,0.8355826080890176,0.758850306085076,0.5146659225282104
0.0,0.5098824118088567,0.2546910182636978,0.4055374365592898,0.0,0.329126044264611
0.4929964982491245,0.6427320490367777,0.5641731298473857,0.2797896646144723,0.5748992796972286,0.4270244344838411
0.5007503751875937,0.5869402051538656,0.2809607205404053,1.0,0.5597450163070966,0.6907581491881333
0.4239619809904952,0.3712784588441332,0.7845884413309984,1.0,0.7487329298707641,0.4818249995639814
0.4354677338669334,0.6327245434075558,0.839629722291719,0.0,1.0,0.4894710222020684
0.5027513756878439,0.4998749061796348,0.7530647985989494,0.500687165355704,0.4942619948724209,0.5004429949247432
0.3981990995497748,0.4806104578433827,0.8256192144108083,0.0661701867903796,0.421377121230619,0.5486666550395033
0.4249624812406202,0.558418814110583,0.028771578684013,0.0006714686851422,0.940438111516124,0.9258489282662156
0.2301150575287643,0.9842381786339756,1.0000000000000002,0.8527338367895076,0.5986605507787293,0.0
0.6725862931465731,0.8669001751313488,0.618213660245184,0.7502589950642692,0.5277290405846138,1.0
0.0,1.0000000000000002,0.3827870903177384,0.942039171913424,0.9029736470342014,0.0
0.3899449724862431,0.6747560670502879,0.7688266199649738,0.5455988279819314,0.4938189999476777,0.0177790955229608
0.5027513756878439,0.4998749061796348,0.7528146109582188,0.5007028620262658,0.4942009522646807,0.5004429949247432
0.8769384692346172,0.3950462847135352,0.6900175131348513,0.4624291469731587,0.5067600327886007,0.4678619390620367
0.3879439719859929,0.8924193144858645,0.6137102827120341,0.5163594188743743,0.748581195388667,0.0
0.5025012506253126,0.5001250938203654,0.7530647985989494,0.5006714686851422,0.4941242129863787,0.5004116015836196
0.5027513756878439,0.4998749061796348,0.7530647985989494,0.5006557720145804,0.4941852555941189,0.5004569475207981
0.535767883941971,1.0000000000000002,0.3635226419814862,0.4498386731081152,0.4853497741423513,0.3111498683223747
0.2376188094047023,0.631473605203903,1.0000000000000002,0.9802675410293528,2.9649266616693648e-05,0.0
0.5027513756878439,0.5001250938203654,0.7530647985989494,0.5006714686851422,0.494171302998064,0.5004569475207981
0.5142571285642821,0.5831873905429074,0.7505629221916439,0.4875787013621221,0.493866089959363,0.5755707483823709
0.2681340670335167,0.3805354015511635,0.5399049286965225,0.0881001796396742,0.991637162739592,0.7405846137747004
0.4767383691845922,0.5919439579684765,0.5253940455341507,1.0,0.5899925004796205,0.6792367929957968
0.7911455727863931,0.4100575431573681,0.4846134600950714,0.3759457244013464,0.5768229938782985,0.5231054990669202
0.5027513756878439,0.4998749061796348,0.7530647985989494,0.500687165355704,0.494108516315817,0.5004116015836196
0.056528264132066,0.318238679009257,0.5909432074055543,0.2086732825226293,0.4718140118945881,0.8268064251704832
0.4687343671835917,0.5611708781586191,0.7573179884913686,0.5319863264558662,0.5090186092749882,0.4032474667317788
0.4224612306153076,0.6865148861646236,0.7650738053540156,0.564537733051956,0.5074768474109214,0.0075082407520449
0.7428714357178589,0.4265699274455843,0.6397297973480112,0.3663777316566964,1.0,0.8300259867101523
0.1268134067033516,0.4240680510382788,0.5206404803602703,0.4802221950921743,0.0,0.3186581090744196
0.74112056028014,0.3942957217913436,0.5781836377282963,0.5383033643197237,0.4692048764323211,0.4082529605664754
1.0,0.9712284213159872,1.0000000000000002,1.0,0.5537942340896803,0.0
0.1715857928964482,1.0000000000000002,0.0,0.6790833144391928,0.8791966792821388,0.2662068123550238
0.4654827413706853,0.3565173880410309,0.6880160120090069,1.0,0.63910040636936,0.6225892530128887
0.4674837418709354,0.5088816612459346,0.6564923692769579,0.0,0.2950799658161396,0.5804384603310253
0.3659329664832416,0.4598448836627472,0.7348011008256193,0.4469086279365855,0.5805605455465057,0.0
0.5022511255627813,0.5001250938203654,0.7530647985989494,0.5006418194185256,0.4942323456058042,0.5005336867991
0.4374687343671835,0.5253940455341507,0.9254440830622968,0.0,0.4940492177825836,0.5451558330571882
0.2123561780890445,0.542406805103828,0.74881160870653,0.4775973629593456,1.0,0.852170500723791
0.3499249624812406,0.7340505379034278,0.7573179884913686,0.5232275842824006,0.4753998290806983,0.0786071820988192
0.5022511255627813,0.4998749061796348,0.7528146109582188,0.5005947294068402,0.4941852555941189,0.5004883408619216
0.4587293646823411,0.5088816612459346,0.717287965974481,1.0,0.6422589253012889,0.5201894064914453
0.4922461230615307,0.8533900425318991,0.4298223667750814,0.0019690601182483,0.453225665800443,0.4004848527129079
0.3594297148574287,0.6499874906179637,0.7317988491368528,0.4751260093831208,0.5071105917644801,0.4540959589793676
0.5025012506253126,0.4998749061796348,0.7533149862396799,0.5006714686851422,0.4941399096569405,0.5004883408619216
0.4459729864932465,0.4158118588941707,0.8013510132599451,0.2760189755306347,0.441964176709629,0.4756596961822209
0.5702851425712856,0.2882161621215913,0.6842631973980486,0.3048764323211888,0.6369028724907128,0.5504368906639692
0.5005002501250625,0.5576682511883915,0.7463097322992245,0.5093691682508676,0.4978792053996547,0.4952840225334426
0.5025012506253126,0.5001250938203654,0.7525644233174882,0.5006557720145804,0.4941852555941189,0.5005197342030452
0.6730865432716358,0.0467850888166125,0.7315486614961222,0.8682386591555191,0.4527530216090831,1.0
0.5615307653826913,0.7525644233174882,0.112334250688016,0.9999703507333833,0.9818999947677765,0.5388841411305091
0.3931965982991495,0.8779084313234928,0.803102326745059,0.0,0.0,0.9954531977606084
0.5027513756878439,0.5001250938203654,0.7528146109582188,0.5005947294068402,0.4941556063275023,0.5004883408619216
0.6603301650825412,0.5231423567675758,0.7445584188141107,0.6299754085494532,0.5591659835708181,0.0
0.4799899949974987,0.513635226419815,0.6412309231923944,1.0,0.7631843312346303,0.3349250919999302
0.2473736868434217,0.4883662747060296,0.5081310983237429,0.5951811221375377,0.0684741092139456,0.4550883373737726
0.5050025012506253,0.5006254691018265,0.5609206905178885,0.2498473934806495,1.0,0.810905697891414
0.4137068534267133,0.5569176882661998,0.467100325243933,0.6037567364877827,1.0,1.0
0.5037518759379689,0.6489867400550414,0.7080310232674507,0.9982611577166576,0.620346373197063,0.44878525210597
0.5027513756878439,0.5001250938203654,0.7525644233174882,0.5006261227479638,0.4941852555941189,0.5004272982541814
0.4207103551775887,0.6072054040530399,0.6264698523892921,0.0009609850532814,0.3579695484591101,0.6201771979698972
1.0,0.0,0.7945959469602203,0.5883286534000732,0.5101173762143119,0.0500549383469661
0.667583791895948,0.4791093319989993,0.7225419064298225,0.5163297696077577,0.6109440675305648,0.0
0.4804902451225612,0.4773580185138855,0.6997748311233426,1.0,0.890672689537297,0.499236095365994
0.4302151075537768,0.4926194645984489,0.6990242682011509,0.0,0.3588851875752132,0.5708861642569371
0.68184092046023,0.6422316737553166,0.7650738053540156,0.6093726563998814,0.4606885606153095,0.0
0.9117058529264632,0.8674005504128097,0.0,1.0,0.0,0.0
0.2021010505252626,0.5666750062546911,0.6474856142106581,0.7774543488497829,1.0,0.8334304201475486
0.9997498749374686,0.5301476107080312,0.0552914686014511,0.3985925318729616,0.4665172576172454,1.0
0.4894947473736868,0.5296472354265701,0.5819364523392545,1.0,0.5503601513856672,0.773927830196906
0.5115057528764382,0.5351513635226421,0.7075306479859896,0.9839457941643268,0.592097598409404,0.5562202417287266
0.5030015007503751,0.5001250938203654,0.7528146109582188,0.5005493834696618,0.4941556063275023,0.5004726441913598
0.5137568784392196,0.5288966725043784,0.7265449086815112,0.0,0.3235554702896908,0.0796762997715262
0.5027513756878439,0.4998749061796348,0.7530647985989494,0.5006261227479638,0.494171302998064,0.5004429949247432
0.1735867933966983,0.4543407555666751,0.4400800600450338,0.5136892408043672,0.9760102551581004,0.7483213282871444
0.5025012506253126,0.5001250938203654,0.7525644233174882,0.5007325112928824,0.494171302998064,0.5004569475207981
0.385192596298149,0.4838628971728798,0.516387290467851,0.4193016725674521,0.0,0.0
0.5027513756878439,0.5001250938203654,0.7528146109582188,0.5007028620262658,0.4941242129863787,0.5004429949247432
0.4794897448724362,0.6667500625469104,0.490367775831874,0.4042555417967455,0.2370441425257687,0.5725639639325392
0.0,0.0,0.4350763072304229,0.9346076704396812,0.6866072518617995,0.0
0.4842421210605302,0.5696772579434577,0.7448086064548413,0.5287353715750737,0.486143328042974,0.3969914714756614
0.5882941470735367,0.5091318488866652,0.848386289717288,0.5193208573870276,0.5081029701588852,0.3250815354831958
0.1293146573286643,0.425068801601201,0.5063797848386291,0.3916650679317021,0.0,0.0002598671015225
0.4762381190595297,0.6792594445834377,0.7578183637728297,0.4236043043758829,0.3528873153461116,0.6099987791478452
0.4742371185592796,0.3430072554415813,0.6174630973229923,0.4161884995727017,0.8805553133229851,0.0
1.0,0.2151613710282713,0.6217162872154116,0.540731116033277,0.6779845474998691,0.9998936114550814
0.4782391195597798,0.7408056042031526,0.6164623467600702,1.0,0.7927760433925737,0.4951322880513455
0.0,0.062546910182637,0.5546659994996248,0.2944852364092994,0.0642325200132549,0.0450651411828313
0.5255127563781891,0.5306479859894923,0.777583187390543,0.4915464708652353,0.4911331252071088,0.5494602089401259
0.5022511255627813,0.5001250938203654,0.7528146109582188,0.500687165355704,0.4941399096569405,0.5004429949247432
0.8254127063531764,0.4423317488116088,0.5288966725043783,0.5903430594554999,1.0,0.3794722430542233
0.4352176088044021,0.1928946710032525,0.6850137603202403,0.0,0.5889704728185988,0.4673718541256082
0.508504252126063,0.5291468601451089,0.7680760570427823,0.5032352582102307,0.5027922632854875,0.4219718506374592
0.4984992496248123,0.5349011758819116,0.7933450087565675,0.4801611524844341,0.4186598531489265,0.9274360360674608
0.5020010005002501,0.5001250938203654,0.7528146109582188,0.5005493834696618,0.4941556063275023,0.5005197342030452
0.6218109054527263,0.5886915186389794,0.7207905929447087,0.4649615431571237,0.4772154106423426,0.6126846538884141
0.584792396198099,0.4716037027770829,0.7623217413059795,0.3953276243961142,0.4917295986884559,1.0
0.5425212606303151,0.7740805604203154,0.7363022266700026,0.005050839771875,0.5038160350210161,0.5377853741911854
0.4032016008004001,0.5754315736802603,0.7543157368026021,0.4898215811779479,0.4986413659591537,0.2314735685508485
1.0,0.0,0.6710032524393297,0.6188656539407363,0.6713169506601322,1.0
0.5025012506253126,0.3677758318739055,0.774330748061046,0.6820133596107225,0.6785949735772712,0.4787868217730261
0.4592296148074036,0.7450587940955719,0.7418063547660747,0.5351762387289185,0.5623245025027469,0.0
0.7068534267133566,0.3450087565674257,0.4608456342256693,0.5337408654097703,0.4731412525943108,0.4459319462127422
0.7188594297148574,0.1105829372029023,0.8378784088066051,0.2136805204318328,0.1848056228962101,1.0
0.5027513756878439,0.5001250938203654,0.7530647985989494,0.5006557720145804,0.4942776915429827,0.5005040375324834
0.0267633816908454,0.5954465849387042,0.7933450087565675,0.6259012505014214,0.5266302736452901,0.9974362104749116
0.2418709354677338,0.4413309982486866,0.5516637478108583,0.5086366569579852,0.0686118910999878,0.4645342449029422
0.5025012506253126,0.4998749061796348,0.7528146109582188,0.500687165355704,0.4942009522646807,0.5004429949247432
1.0,0.0,0.3410057543157369,0.8484625983222003,0.9227043619303416,0.0027155240071856
0.5027513756878439,0.4998749061796348,0.7528146109582188,0.5006261227479638,0.494171302998064,0.5004429949247432
0.9997498749374686,0.1108331248436327,0.4188141105829372,0.0,1.0,0.2935539006226346
0.6143071535767883,0.5611708781586191,0.7343007255441583,1.0,0.730817796536268,0.3559847916703001
0.999249624812406,0.247935951963973,1.0000000000000002,0.1825941364215079,0.0,0.0
0.6258129064532265,0.5161371028271204,0.5716787590693021,0.8189929713797374,0.0,0.2404014859514798
0.5027513756878439,0.4998749061796348,0.7530647985989494,0.5005807768107854,0.4941242129863787,0.5004429949247432
0.344672336168084,0.453840380285214,0.4896172129096823,0.4247501613268919,0.0,0.165059211329508
0.2271135567783891,0.9321991493620218,0.7310482862146611,0.3628076111411479,0.0072797669916458,0.9979559446779566
0.4722361180590295,0.6945208906680012,0.7455591693770329,0.4033381586061356,0.3044037881298289,1.0
0.5065032516258129,0.6659994996247187,0.7322992244183139,0.5070966391684253,0.5165878926347733,0.0
0.5027513756878439,0.5001250938203654,0.7528146109582188,0.5007325112928824,0.4940945637197621,0.5005336867991
0.5027513756878439,0.4998749061796348,0.7528146109582188,0.500610426077402,0.4941399096569405,0.5004883408619216
0.2086043021510755,0.6497373029772331,0.756567425569177,0.4582311596351396,0.532917662242531,0.070886164256937
1.0,0.0,0.4736052039029272,0.5254390707571027,0.5382580183825453,1.0
0.5102551275637819,0.5061295971978985,0.7878408806604955,0.4716919266791077,0.4060554266878281,1.0
0.4674837418709354,0.6634976232174132,0.508631473605204,1.0,0.7758515443779759,0.6202539372481992
0.1133066533266633,0.0,0.4080560420315237,0.7148856759160751,1.0,0.3128590613391004
0.5025012506253126,0.5001250938203654,0.7530647985989494,0.500610426077402,0.4941852555941189,0.5004272982541814
0.5025012506253126,0.5001250938203654,0.7530647985989494,0.5005807768107854,0.4941556063275023,0.5004569475207981
0.5022511255627813,0.4998749061796348,0.7528146109582188,0.5006557720145804,0.4942166489352425,0.5004569475207981
0.2691345672836418,0.7915936952714537,0.0,0.9133508903500356,0.24949683450477,0.0568306678061287
0.4309654827413706,0.5083812859644735,0.769326995246435,0.4876850899070408,0.4996790902907372,0.0177180529152205
0.4162081040520259,1.0000000000000002,1.0000000000000002,0.854535465755097,0.0692990564556918,1.0
0.4562281140570284,0.4921190893169879,0.6612459344508382,0.1071751225212341,1.0,0.6695467150356663
0.4687343671835917,0.6247185389041783,0.5679259444583439,0.91516647191168,0.6888501316776252,0.6081064583078989
0.5032516258129064,0.4998749061796348,0.7525644233174882,0.500687165355704,0.494171302998064,0.5005336867991
0.3741870935467734,0.3440080060045035,0.6044533400050038,0.4898215811779479,0.4507996581613966,0.5480108830249228
0.8606803401700849,0.4055541656242183,0.3527645734300726,0.5900221497462371,0.4977710727802292,0.5487433943178053
0.4709854927463731,0.6900175131348513,0.5801851388541407,0.5122381708146572,0.7609414514188046,0.0
0.5027513756878439,0.5001250938203654,0.7523142356767576,0.5006418194185256,0.4941556063275023,0.5005040375324834
0.0267633816908454,0.7695771828871656,0.8198648986740056,0.2944852364092994,0.7402480073948758,0.0
0.9997498749374686,0.0195146359769827,0.7928446334751065,0.8726354709873205,0.0,0.7628041229921342
0.5540270135067533,0.6347260445334002,0.738303727795847,0.4182342989692519,0.3914348500967961,1.0
0.5137568784392196,0.5879409557167877,0.7395546659994997,0.4904163105847882,0.5248286446797007,0.8094860212428274
0.5025012506253126,0.5001250938203654,0.7530647985989494,0.5007168146223206,0.4941399096569405,0.5005807768107854
0.4314657328664332,0.591693770327746,0.7688266199649738,0.5220974240019534,0.4907058269529274,0.8680415787362437
0.4707353676838419,0.3244933700275207,0.65749311983988,0.0,0.5737708634912884,0.6412525943108289
0.6845922961480739,0.5801851388541408,0.7130347760820617,0.3080820412648028,0.4015086244484364,1.0
0.5935467733866933,0.1253440080060046,1.0000000000000002,0.2776514292690584,0.5521914296178733,0.2241484556220241
0.3944472236118058,0.5008756567425571,0.7645734300725546,0.2432094459075292,0.4592392347001064,0.9502345780211732
0.5020010005002501,0.500375281461096,0.7523142356767576,0.5006261227479638,0.4942462982018591,0.5004429949247432
0.4669834917458729,0.5849387040280212,0.6514886164623469,0.569131625303033,0.5253623314788007,1.0
0.1950975487743871,0.4020515386539906,0.547410557918439,0.47840661353053,0.0,0.2932329909133718
0.5635317658829414,0.60270202651989,0.7808356267200401,0.5000313933411236,0.5609501717913389,0.0
0.528264132066033,0.8674005504128097,1.0000000000000002,0.0,1.0,0.2811308579102499
0.4864932466233116,0.6219664748561422,0.6349762321741307,1.0,0.6116015836196522,0.5738162094284668
0.9997498749374686,0.0,1.0000000000000002,1.0,0.0,0.940438111516124
0.792896448224112,0.4620965724293221,0.7778333750312736,0.4530582346477841,0.2393184156827179,0.3796693234734988
0.5025012506253126,0.4996247185389043,0.7525644233174882,0.5006557720145804,0.4942619948724209,0.5004116015836196
0.488744372186093,0.4706029522141607,0.7928446334751065,0.3705443256535919,0.5662626227392434,0.3583044107644278
0.1995997998999499,0.4728546409807357,0.586690017513135,0.7107644278563581,0.2133892599891867,0.3915272860456599
0.0,1.0000000000000002,0.819114335751814,0.0010220276610217,0.0820412648028323,1.0
0.5877938969484742,0.5851888916687518,0.5436577433074807,0.0,1.0,0.9335089035003576
1.0,0.5929447085313987,0.9964973730297724,0.514315363552331,0.7406613530530024,0.0
1.0,0.0,0.3440080060045034,0.4584456807994838,0.5886949090465144,0.5329926574463261
0.4092046023011505,0.7700775581686266,0.5003752814610959,0.4772311073129044,0.4299387829848091,0.553441931039294
0.8976988494247122,0.4168126094570929,0.5168876657493121,0.4575910842911209,0.2550360151385667,0.3317055304602613
0.5915457728864432,0.4998749061796348,0.8891668751563675,0.7377295638069659,0.5225247222561348,0.4190121561993128
0.9247123561780888,0.0,0.545158869151864,0.7839248652702444,0.3415944329141741,0.6989082093587038
0.4084542271135567,0.4448336252189143,0.7940955716787592,0.1094650923487451,0.3847358599159356,0.5550150862444844
0.2368684342171085,0.4478358769076809,0.5851888916687517,0.2937823743830337,0.9471527983675464,0.6549871810523745
0.534017008504252,0.4976232174130599,0.7898423817863398,0.5832464202870746,0.4459772921499206,0.7279644906430403
0.1730865432716358,0.4110582937202903,0.4788591443582687,0.5542511816104784,0.0140397997802466,0.2009522646807471
0.3159079539769884,0.5421566174630975,0.3362521891418564,0.2454976716605333,0.0,0.0
0.0285142571285643,0.4193144858643984,0.5819364523392545,0.1923609536599403,0.1091895285766608,0.3726197743167588
0.5027513756878439,0.5001250938203654,0.7528146109582188,0.500610426077402,0.494171302998064,0.5004272982541814
0.5072536268134067,0.3530147610708032,0.7062797097823369,0.8513002075448663,0.5679561190854073,0.4624134503025969
0.2383691845922961,0.3895421566174632,0.4280710532899675,0.7313968292725465,0.0,0.3605490346547604
0.9997498749374686,0.0,0.0400300225168877,0.9972687793222528,0.404834574533024,0.952447808570382
0.7788894447223611,0.3882912184138105,0.7805854390793097,0.5521146903395713,0.4850149118370336,0.0
0.9997498749374686,0.2857142857142858,0.4530898173630223,0.5290405846137747,0.4304567731133474,1.0
0.5025012506253126,0.5001250938203654,0.7530647985989494,0.5005947294068402,0.4941556063275023,0.5003976489875648
0.5030015007503751,0.5001250938203654,0.7528146109582188,0.5007325112928824,0.4941852555941189,0.5004272982541814
0.6473236618309154,0.5211408556417314,0.6622466850137605,0.179754783124335,1.0,0.8834086192162129
0.5250125062531265,0.6447335501626221,0.7690768076057044,0.6854927882519141,0.5958055008109946,1.0
0.5165082541270635,0.539654741055792,0.8213660245183889,0.7235537262151839,0.487135706437379,0.5846817936062229
0.5027513756878439,0.500375281461096,0.7528146109582188,0.500763904634006,0.4941852555941189,0.5004116015836196
0.4269634817408704,0.5188891668751565,0.6487365524143108,1.0,0.7047979489683799,0.6843783246420287
0.5030015007503751,0.5001250938203654,0.7525644233174882,0.5007028620262658,0.494171302998064,0.5005040375324834
0.5027513756878439,0.5001250938203654,0.7528146109582188,0.5006261227479638,0.4940788670492003,0.5004272982541814
0.6545772886443221,0.5038779084313236,0.7650738053540156,0.5245077349704379,0.4713396236287214,0.0
0.5195097548774387,0.8083562672004005,0.3700275206404804,0.8313549714843818,0.782810401660359,0.6365209201737099
0.8319159579789894,0.4545909432074057,0.3540155116337253,0.3728482480771579,0.292455133683311,0.0814465353959921
0.5025012506253126,0.5001250938203654,0.7533149862396799,0.5007028620262658,0.4941242129863787,0.5004272982541814
0.5040020010005002,0.6239679759819866,0.7495621716287216,0.6294870676875316,0.5893506810610949,1.0
0.8066533266633316,0.4193144858643984,0.6587440580435328,0.5207387899611071,0.7283603955560982,0.560859479916982
0.9109554777388692,0.2962221666249688,1.0000000000000002,0.3176046880722745,0.9311596351396132,0.4314195022411357
0.4287143571785892,0.8338754065549163,0.4948711533650238,0.4240019533634477,0.2862741336309887,0.6235345413956084
0.5605302651325662,0.2762071553665249,0.764323242431824,0.0,0.5247989954130841,0.6917051816453599
0.5025012506253126,0.5001250938203654,0.7528146109582188,0.500687165355704,0.4941399096569405,0.5004429949247432
0.5177588794397198,0.4836127095321492,0.769827370527896,0.4248722465423723,0.4407886704920034,0.3312328862689014
0.8961980990495246,0.4550913184888668,0.6489867400550414,0.408282609833092,0.7980100109876693,0.3164152292585939
0.7561280640320159,0.1656242181636228,0.6492369276957719,0.1283726040776461,0.2827947049897972,0.3527495334600694
0.5327663831915957,0.425068801601201,0.683512634475857,0.5252716396044439,0.9096115946073215,0.5236531384620751
0.5315157578789395,0.411808856642482,0.7332999749812361,0.0,0.1208957566667248,0.486066588764672
0.4707353676838419,0.641481110833125,0.4508381285964474,0.9995883984163804,0.6378499049479394,0.6139351553098349
0.9997498749374686,0.1298473855391544,1.0000000000000002,0.7231874705687427,0.0,0.0
0.432216108054027,0.1613710282712034,0.9324493370027522,0.2253536111062665,0.5213492160385091,0.4652981495369482
0.8001500750375187,0.3767825869402053,0.5386539904928698,0.5003505589758794,0.4633290894187,0.3887960653679125
0.3229114557278639,0.3977983487615713,0.5649236927695773,0.5466365523135148,1.0,0.6278546139491079
0.5765382691345672,0.5961971478608958,0.7983487615711785,0.8192074925440815,0.3105394422449727,0.0188464691211608
0.5072536268134067,0.4340755566675007,0.855641731298474,0.5283848125991942,0.6206969321729424,0.4252385021888135
0.818409204602301,0.3450087565674257,0.7823367525644234,0.4033381586061356,0.3969443814639761,0.0
0.4714857428714357,0.5113835376532401,0.764323242431824,0.9840068367720668,0.5118579625721611,0.4111673090674433
0.5027513756878439,0.4998749061796348,0.7528146109582188,0.500610426077402,0.494171302998064,0.5005493834696618
0.1453226613306653,0.4545909432074057,0.6122091568676509,0.6068559568864782,0.3514676386975252,0.3789071629139997
0.0777888944472236,0.5596697523142358,0.2854640980735552,0.0524199033782722,0.8127055827824965,0.0
0.4749874937468734,0.5754315736802603,0.268951713785339,1.0,0.7941486300294749,0.6215358320107435
0.4149574787393696,0.7230422817112836,0.6459844883662749,0.7888379231560771,0.3968083436524408,1.0
0.5027513756878439,0.4996247185389043,0.7528146109582188,0.5007168146223206,0.494171302998064,0.5005336867991
0.5237618809404702,0.5091318488866652,0.7558168626469853,0.4993738772520362,0.485761375725971,0.2611559725831487
0.5900450225112556,0.6369777332999751,0.9614711033274956,0.0528925475696321,0.3750614786263669,0.1781066327153496
0.7873936968484241,0.4533400050037529,0.7413059794846135,0.8330327711599839,0.0,0.371383225491393
0.5020010005002501,0.5844383287465601,0.9016762571928948,0.6557807349529972,0.999161100162199,0.0
0.7651325662831414,0.8563922942206657,0.9767325494120592,0.200495317159949,0.114072937195877,1.0
0.436968484242121,1.0000000000000002,0.4738553915436578,0.5734499537820256,0.4025603013760748,1.0
0.3779389694847423,0.6732549412059046,0.7885914435826871,0.5281249454976716,0.5013882833074629,0.0442244972705234
0.7531265632816407,0.4973730297723294,0.5389041781336003,0.6450075867241049,0.0,0.0002284737603991
1.0,0.0,0.3244933700275207,0.0184348675375412,0.0,0.5467429408584334
0.4724862431215607,0.5444083062296724,0.7653239929947462,0.5405933341472348,0.488128084831784,0.0245234316409996
0.4732366183091545,0.4428321240930699,0.7720790592944711,0.7355023806617018,0.6431745644173918,0.5733732145037236
0.3894447223611805,0.6214660995746811,0.774330748061046,0.4607652998936115,0.5160838551022899,0.7241031096848457
0.5050025012506253,0.4218163622717039,0.6277207905929448,0.4827859846172628,0.5380748905593247,0.5094773008702932
0.614057028514257,0.6572429321991495,0.8371278458844135,0.2559516542546697,0.4372778485096883,0.9958334060031044
0.1270635317658829,0.3875406554916188,0.7633224918689018,0.3823395015435059,0.0908157036468598,0.441277011353925
0.0,1.0000000000000002,0.4373279959969978,0.0,0.0217765142926905,1.0
0.5025012506253126,0.5001250938203654,0.7530647985989494,0.5007325112928824,0.4942009522646807,0.5004429949247432
0.4162081040520259,0.6394796097072806,0.7753314986239681,0.4433210666759684,0.4958491026736662,0.0
0.3319159579789894,1.0000000000000002,0.58443832874656,1.0,0.6438931231142194,1.0
0.5025012506253126,0.4998749061796348,0.7528146109582188,0.5006557720145804,0.4942166489352425,0.5004883408619216
0.5025012506253126,0.4998749061796348,0.7525644233174882,0.5006261227479638,0.4942166489352425,0.5004726441913598
0.4264632316158078,0.4638478859144359,0.877157868401301,0.3525664056368488,0.5072640703210841,0.4514257809093605
0.5025012506253126,0.5001250938203654,0.7528146109582188,0.5006261227479638,0.4941399096569405,0.5005493834696618
0.5027513756878439,0.5001250938203654,0.7528146109582188,0.5005807768107854,0.4941852555941189,0.5004272982541814
0.2923961980990495,0.4123092319239431,0.6322241681260947,0.449929364982472,0.0,0.278444983169681
0.5670335167583791,0.5724293219914938,0.7052789592194146,0.4657097511205679,0.4448174826028568,1.0
0.7043521760880439,0.6209657242932201,0.7630723042281713,0.4501124928056926,0.4205678706594346,1.0
0.0,0.7625719289467101,0.0,0.7496799623279906,0.7343129218480213,0.0296824040323002
0.7178589294647323,0.4701025769326996,0.8398799099324494,0.4787728691769712,1.0,0.7039730017266337
0.4959979989994997,0.6069552164123093,0.7688266199649738,0.5120096970542581,0.5537331914819401,0.9879292603380015
0.4267133566783391,0.95421566174631,0.664748561421066,0.6035282627273837,0.5422414845562202,0.0
0.6793396698349173,1.0000000000000002,0.0,0.7268796762997716,0.3199853497741424,0.7578893210317945
0.5025012506253126,0.5001250938203654,0.7533149862396799,0.5006714686851422,0.4941852555941189,0.5003976489875648
0.5027513756878439,0.4998749061796348,0.7530647985989494,0.5006714686851422,0.4941399096569405,0.5004569475207981
0.4837418709354676,0.0,0.4623467600700526,0.0003366063798245,0.6471894239321904,0.4887681601758027
0.3866933466733366,0.4143107330497874,0.8626469852389294,0.471904703768945,0.5235467499171564,0.6863630814308387
0.9997498749374686,0.0657993495121341,1.0000000000000002,0.0,0.9365470812913128,0.0
0.597048524262131,0.5323992994746061,0.746059544658494,0.3526134956485341,0.4969025236758114,0.517609920295795
0.6070535267633816,0.5083812859644735,0.4650988241180886,0.7854352337931876,0.0,0.0
0.3586793396698349,0.3867900925694272,0.7695771828871656,0.5899768038090587,0.4913319497008912,0.9734464656330116
0.4767383691845922,0.5066299724793597,0.3319989992494371,0.394807890193069,0.0,0.0
0.5942971485742871,0.6680010007505631,0.7463097322992245,0.4309608106458308,0.6089610548162617,0.0
0.0002501250625313,0.8231173380035028,0.6557418063547662,0.9942166489352424,0.0,0.9991297068210754
0.5025012506253126,0.4998749061796348,0.7535651738804104,0.500610426077402,0.4942009522646807,0.5004569475207981
0.7513756878439218,0.4578433825369028,0.6367275456592445,0.5157332961264105,0.9828923731621816,0.6566056821947434
0.5025012506253126,0.4998749061796348,0.7528146109582188,0.5006557720145804,0.4942323456058042,0.5005040375324834
0.5027513756878439,0.5001250938203654,0.7530647985989494,0.500687165355704,0.4942166489352425,0.5003976489875648
0.468984492246123,0.5339004253189894,0.8106079559669754,0.6400317421560249,0.5809581945340705,0.9883112126550048
0.2241120560280139,0.4841130848136103,0.5719289467100326,0.4665033050211905,0.0074628948148665,0.4082686572370372
0.5402701350675337,0.7290467850888168,0.7297973480110084,0.0,0.4808779671067548,0.4676631145682544
0.5375187593796897,0.8744058043532652,0.2426820115086315,0.0,0.273394143397806,0.3089819837103441
0.4779889944972486,0.2461846384788592,0.8001000750562923,0.2883966723058409,0.4802675410293527,0.5901599316322793
0.5025012506253126,0.5001250938203654,0.7528146109582188,0.5007168146223206,0.4941556063275023,0.5004429949247432
0.5025012506253126,0.4998749061796348,0.7528146109582188,0.5006261227479638,0.4941556063275023,0.5004272982541814
0.5027513756878439,0.500375281461096,0.7528146109582188,0.5005650801402236,0.494108516315817,0.5004272982541814
0.5200100050025012,0.852889667250438,0.3239929947460596,0.4184017301219108,0.5655754573835394,0.4987791478451959
0.4857428714357178,0.4363272454340757,0.3617713284963723,1.0,0.0,0.2409055234839632
0.7793896948474236,0.5896922692019015,0.6139604703527647,0.9989779723389782,0.0,0.362425658824145
0.909704852426213,0.9244433324993748,0.4375781836377284,0.5914261297242618,0.5196557196923453,1.0
0.5652826413206603,0.6659994996247187,0.798098573930448,0.4898058845073861,0.412799762805867,1.0
0.5860430215107553,0.4796097072804605,0.6214660995746811,0.4819627814500235,1.0,0.6553237874321991
0.2976488244122061,0.3880410307730799,0.7788341255941957,0.4236810436541849,0.5118876118387777,0.0905261872787205
0.4542271135567783,0.6692519389542159,0.5751813860395297,0.0,0.0,0.3238467307323369
0.8054027013506753,0.3575181386039531,0.6517388041030774,0.5069745539529449,0.8335682020335908,0.5545267453825627
0.4987493746873436,0.6247185389041783,0.7528146109582188,0.0,4.5345937178475904e-05,0.3936027347088268
0.4564782391195597,0.531898924193145,0.7505629221916439,0.5504368906639692,0.5412944520989936,0.7343739644557615
0.5097548774387193,0.3505128846634977,0.9454590943207406,0.0521617803512566,0.4994506165303382,0.486525280359977
0.3081540770385192,0.3370027520640481,0.6504878658994246,0.5448506200184872,0.5734796030486422,0.7945759282836563
0.5177588794397198,0.2246685013760321,0.7700775581686266,0.0,0.2391038945183738,0.3415176936358721
0.9997498749374686,0.3032274205654242,0.0,0.0818581369796118,1.0,0.0
0.5627813906953476,0.7683262446835128,0.9979984988741558,0.6065350471772154,0.3193138810890001,0.0
0.5025012506253126,0.4998749061796348,0.7530647985989494,0.5007935539006226,0.4941852555941189,0.500381952317003
0.6293146573286643,0.5281461095821868,0.8859144358268702,1.0,0.838237089488463,0.3865828348187035
0.6390695347673836,0.3405053790342758,0.5256442331748813,0.3053351239164937,0.0015103685229432,0.2777892111551006
0.8926963481740869,0.7713284963722794,0.5186389792344259,0.4521582922022429,0.5273784816087344,1.0
0.7941470735367683,0.3665248936702527,0.7493119839879911,0.3083105150252019,0.458963670928022,0.998322200324398
0.3941970985492746,0.357017763322492,0.6247185389041783,0.8308509339518984,0.0,0.1875385876484643
0.5475237618809404,0.2919689767325495,0.6900175131348513,0.0,0.199197725726843,0.5537785374191185
0.8899449724862429,0.6379784838628973,0.7833375031273456,0.4914086889791932,0.587123497915831,0.2323892076669515
0.5022511255627813,0.4998749061796348,0.7528146109582188,0.500610426077402,0.4940945637197621,0.5005040375324834
0.4942471235617808,0.4793595196397299,0.5391543657743308,0.555121474789403,1.0,0.8448750370615833
0.5025012506253126,0.5001250938203654,0.7530647985989494,0.5006418194185256,0.494108516315817,0.5004429949247432
0.6530765382691345,0.602201651238429,0.7232924693520142,0.3945637197621082,0.562858189301847,0.9364092994052706
0.5560280140070034,0.6422316737553166,0.6777583187390543,0.4237124369953085,0.4700734255367389,0.0
0.2231115557778889,0.4543407555666751,0.4540905679259445,0.6230775938748103,0.4207509984826552,0.3890855817360518
0.4794897448724362,0.263447585689267,0.6172129096822618,0.4285348030067845,0.6550325269895529,0.4799937213317753
0.4747373686843421,0.5651738804103079,0.7908431323492621,0.0,0.3816226869211853,0.3693077768282261
0.5787893946973486,0.4218163622717039,0.790342757067801,0.4363936027347088,0.4721192249332891,0.8028323769991454
0.3204102051025512,0.5026269702276709,0.5158869151863898,0.3651725761724541,0.0,0.0
0.1913456728364181,0.994495871903928,0.8226169627220417,0.7019742923417689,0.5850620018487189,0.0
0.5027513756878439,0.4998749061796348,0.7530647985989494,0.5007325112928824,0.4942009522646807,0.5004116015836196
0.4169584792396197,0.673004753565174,0.8288716537403054,0.2236897640267192,0.1207265814395591,0.4623820569614734
0.4097048524262131,0.2924693520140106,0.7455591693770329,0.0,0.6959153775049269,0.5389137903971257
0.5327663831915957,0.2787090317738304,0.7640730547910934,0.7714878699618049,0.6027190121561993,0.3118056403369552
0.4144572286143071,0.7723292469352017,0.6975231423567677,0.7497706542023476,0.3730470725709403,0.5815686206114725
0.4237118559279639,0.3897923442581937,0.707280460345259,0.7642987948445157,0.4758271273348797,0.4818389521600362
0.5027513756878439,0.5001250938203654,0.7533149862396799,0.5006557720145804,0.494171302998064,0.5004569475207981
0.0,1.0000000000000002,1.0000000000000002,0.3037166227741249,0.4738423705460697,0.9952386765962642
0.5622811405702851,0.5313985489116839,0.746059544658494,0.443566981181436,0.4780700071507054,0.8326979088546662
0.5027513756878439,0.4996247185389043,0.7530647985989494,0.500687165355704,0.4941852555941189,0.5004883408619216
0.9997498749374686,0.0,0.2777082812109082,1.0,0.0,0.3496363604653191
0.5025012506253126,0.4998749061796348,0.7525644233174882,0.5006714686851422,0.4941852555941189,0.5005197342030452
0.5025012506253126,0.4998749061796348,0.7525644233174882,0.5007168146223206,0.494171302998064,0.5004726441913598
0.2798899449724862,0.980735551663748,0.0,1.0,1.0,0.4949038142909465
0.5032516258129064,0.5001250938203654,0.7525644233174882,0.500610426077402,0.4941399096569405,0.5004272982541814
0.7916458229114556,0.0,0.2667000250187641,1.0,0.0705495578771125,0.4508763974396986
0.3671835917958979,0.3302476857643233,0.6052039029271955,0.5397230409683101,0.5133072884873642,0.4618937160995517
0.9014507253626812,0.9564673505128848,0.7085313985489118,0.4468318886582835,0.5524966426565743,1.0
0.465232616308154,0.5101325994495873,0.5011258443832876,0.2718541256082459,0.6455412735232049,0.4911331252071088
0.5050025012506253,0.8361270953214912,0.3317488116087066,0.7281929644034393,0.4305945549993896,0.4307619861520484
0.5337668834417209,0.5278959219414562,0.7593194896172131,0.4601705704867712,0.468151455430176,0.5757381795350297
0.0,0.8166124593445085,0.3550162621966475,0.712443971606467,0.5890611646929557,0.1252594310828959
0.4662331165582791,0.4660995746810109,0.7600700525394046,0.5212585241641523,0.5095993860857736,0.911411479498404
0.312656328164082,0.0012509382036527,1.0000000000000002,0.688637354587788,0.0082093587038038,1.0
0.7538769384692345,0.4303227420565425,0.8018513885414063,0.3888571079756527,0.3964420880059996,0.5644766904442158
0.672336168084042,0.4318238679009258,0.8141105829372031,0.2749516019324345,1.0,0.6502415543192005
0.6410705352676337,0.5554165624218165,0.881661245934451,1.0,0.0,0.6489125695449709
0.5030015007503751,0.500375281461096,0.7523142356767576,0.5007168146223206,0.4940788670492003,0.5004272982541814
0.2443721860930465,0.4998749061796348,0.3920440330247686,0.3977379353645988,0.0,0.0
0.950975487743872,0.4473355016262198,0.8263697773329999,0.8493468440971799,0.1040933428676073,0.4611925981477929
0.5025012506253126,0.5001250938203654,0.7530647985989494,0.5005947294068402,0.4942166489352425,0.5004116015836196
0.4199599799899949,0.3887915936952715,0.5364023017262948,0.3176046880722745,0.0,0.0
1.0,0.6802601951463599,0.8066049537152866,0.5701065629523694,0.7878001988244938,0.7778816471039642
0.5030015007503751,0.5001250938203654,0.7530647985989494,0.5006261227479638,0.4942166489352425,0.5004429949247432
0.5030015007503751,0.4998749061796348,0.7528146109582188,0.5006261227479638,0.4942323456058042,0.5005040375324834
0.689344672336168,0.5218914185639231,0.5414060545409057,0.3211294626506444,1.0,0.9897901878368244
0.9562281140570285,0.0550412809607206,0.6732549412059046,0.4248565498718105,0.3855904564242984,1.0
0.4819909954977488,0.5331498623967977,1.0000000000000002,0.0,0.0920522524722256,0.616744859340391
0.4557278639319659,0.5854390793094822,0.7803352514385791,0.0,0.4468475853288453,0.1007046061007726
0.5027513756878439,0.5001250938203654,0.7528146109582188,0.5006557720145804,0.4941556063275023,0.5004429949247432
0.5032516258129064,0.5001250938203654,0.7525644233174882,0.5006418194185256,0.4941556063275023,0.5004569475207981
0.2778889444722361,0.8751563672754568,0.7255441581185891,0.508957566667248,0.5027469173483091,0.0
0.4797398699349674,0.5288966725043784,0.641481110833125,0.0,0.5009470324572266,0.2837417374470237
0.7573786893446722,0.9191893920440332,0.5171378533900426,0.8976315468196802,0.6459685717773863,0.183966723058409
0.0,1.0000000000000002,1.0000000000000002,0.1605263616861712,0.0384114969391492,1.0
0.9907453726863432,1.0000000000000002,1.0000000000000002,0.1077698519280743,0.1490974414426984,1.0
0.4684842421210605,0.5659244433324995,0.7365524143107332,0.3480492526640738,0.560554266878281,0.0
0.2198599299649824,0.4428321240930699,0.4746059544658494,0.4561103650347943,0.3065716727418595,0.44777892111551
0.5027513756878439,0.5001250938203654,0.7528146109582188,0.5006714686851422,0.4941399096569405,0.5005493834696618
0.5030015007503751,0.5001250938203654,0.7525644233174882,0.5007325112928824,0.4942462982018591,0.5003976489875648
0.5030015007503751,0.4998749061796348,0.7530647985989494,0.5006557720145804,0.4942009522646807,0.5004726441913598
0.6410705352676337,1.0000000000000002,0.4370778083562673,0.8425397212968937,0.3026178558348013,0.7185621849765422
0.5145072536268134,0.8946710032524394,0.5038779084313236,0.519060990285505,0.2637040654376755,0.663379667579399
0.9997498749374686,0.5038779084313236,0.3867900925694271,0.7784310305736262,0.0,1.0
0.4622311155577788,0.586690017513135,0.7428071053289969,0.4868444459947329,0.5124212986378778,0.7089488462947138
0.8349174587293646,0.5028771578684015,0.2094070552914686,0.0,1.0,0.5135671555888868
0.5025012506253126,0.5001250938203654,0.7528146109582188,0.5006418194185256,0.4941399096569405,0.5005197342030452
0.2996498249124562,0.3850387790843133,0.5471603702777084,0.0064705164204614,0.7936445924969915,0.0017702356244658
0.7286143071535767,1.0000000000000002,0.8896672504378285,0.5316811134171652,0.5076460226380871,0.9416275703298044
0.1563281640820409,0.2449337002752065,0.6567425569176883,0.6131729947503357,0.9847393480649492,0.6895983396410694
0.2353676838419209,0.7292969727295473,0.7312984738553917,0.4783595235188447,0.5251199051223469,0.1495247396968798
0.5032516258129064,0.5001250938203654,0.7528146109582188,0.5006714686851422,0.4941556063275023,0.5004569475207981
0.609304652326163,0.503127345509132,0.7105328996747562,0.2615065315590282,1.0,0.6226049496834505
0.5910455227613807,0.5861896422316739,0.7255441581185891,0.5273470882676108,0.4994802657969548,0.5911366133561226
0.8626813406703351,0.47485614210658,0.8158618964223168,0.1767340460784485,1.0,0.9806651900169174
0.3079039519759879,0.6409807355516639,1.0000000000000002,0.5892285958456145,0.0,0.0
0.5785392696348174,0.4423317488116088,0.8016012009006757,0.5122695641557807,0.4664876083506287,0.4146938277203202
0.4719859929964982,0.7985989492119091,0.673505128846635,0.6134939044595985,0.4110295271814012,0.6815407154193627
0.4714857428714357,0.5909432074055543,0.7585689266950214,0.3980431484032998,0.4697228665608595,1.0
0.9874937468734366,0.5824368276207157,0.7590693019764825,0.3140031742156025,0.9587665905087466,0.5188935591328462
0.0,0.0187640730547911,0.6717538153615212,0.5280639028899314,0.1651045572666864,1.0
0.9997498749374686,0.925944458343758,0.2016512384288216,0.0031742156024905,1.0,0.772998238484748
0.4717358679339669,0.5781836377282964,0.3992994746059545,1.0,0.6985559063083175,0.6292725465231874
0.8931965982991494,0.4816112084063048,0.881661245934451,0.5497340286377034,0.3507211748085878,0.4213928179011807
0.7031015507753876,0.4115586690017514,0.7310482862146611,0.524265308613984,0.1404747370807681,0.3155449360796694
0.5025012506253126,0.5253940455341507,0.7728296222166626,0.4418263948235869,0.4029126044264611,1.0
1.0,0.0,0.2616962722041531,0.2978582765055723,0.8046479585607897,0.0
0.6415707853926963,0.558418814110583,0.7835876907680761,0.6491881333170553,0.5917784327746481,0.5087744388440274
0.46048024012006,0.8588941706279711,0.485364023017263,0.0109876693932365,0.3329717285522438,0.6523170029823674
0.758129064532266,0.5486614961220917,0.4435826870152615,0.6683712088180407,0.0,0.0
0.8506753376688343,0.4520890668001002,0.6897673254941207,0.6068245635453546,0.0,0.062539023667091
0.337168584292146,0.4365774330748062,0.3355016262196648,0.2827947049897972,1.0,0.8352460017091929
0.4327163581790895,0.6002001501125847,0.829622216662497,0.5230898023963584,0.5148333536808692,0.0
0.6305652826413206,0.6482361771328498,0.7167875906930199,0.3465092348745138,0.8026492491759247,0.0
0.4334667333666833,0.6087065298974232,0.7490617963472606,0.4944294260250798,0.5102708547709158,0.2848248077157856
0.0382691345672836,0.4961220915686766,0.4233174881160871,0.7932033416467552,0.07126811657394,0.5460714721732912
0.7478739369684841,0.380785589191894,0.6542406805103829,0.4860212428274936,0.7329996337443535,0.5492160385091651
0.757128564282141,0.8091068301225921,0.7548161120840631,0.450921743376877,0.5722901442349617,0.0
0.7033516758379188,0.484863647735802,0.6825118839129348,0.3266703873589479,0.699579678043846,0.0
0.5027513756878439,0.4998749061796348,0.7528146109582188,0.5006714686851422,0.4942009522646807,0.5004726441913598
0.4597298649324662,0.7192894671003254,0.5251438578934201,0.8501700472644191,0.5974693478905418,0.5864520292306887
0.5027513756878439,0.4998749061796348,0.7530647985989494,0.5006714686851422,0.4941556063275023,0.5004883408619216
0.0655327663831915,0.5646735051288467,0.5869402051538655,0.2765840556708583,0.0027015714111306,0.244597729214992
0.468984492246123,0.3640230172629473,0.9321991493620216,0.0729302195789804,0.518755777246804,0.4950712454436053
0.8176588294147072,0.503127345509132,0.7560670502877159,0.5406090308177965,0.9607042572858712,0.4450320037672009
0.0915457728864432,1.0000000000000002,0.4273204903677759,0.5436001185970665,0.0537628407485568,0.0
0.452976488244122,0.7660745559169378,0.5293970477858395,0.2523501403979978,0.4120986448541082,0.6813732842667038
0.516008004002001,0.5726795096322244,0.8143607705779335,0.6989535552958822,0.6746725500113364,0.4771543680346024
1.0,0.1891418563922943,0.8573930447835878,0.3287144426809913,0.0,0.0
0.5027513756878439,0.4998749061796348,0.7533149862396799,0.5005947294068402,0.4941852555941189,0.5004883408619216
0.0820410205102551,0.3277458093570179,0.7180385288966726,0.5037846416798926,0.5955927237211573,0.5739993372516874
0.5120060030015007,0.5674255691768828,0.730047535651739,0.5626907581491881,0.4826638994017824,1.0
0.5025012506253126,0.5001250938203654,0.7530647985989494,0.5005807768107854,0.4941556063275023,0.5005040375324834
0.0,1.0000000000000002,0.8431323492619467,0.0,0.7425065838812634,1.0
0.5100050025012506,0.5626720040030024,0.743807855891919,0.4723790920348117,0.4273139508519804,0.6424437971990163
0.7156078039019509,0.4408306229672255,0.7740805604203154,0.2570957671311719,0.3040689258245113,0.9991750527582538
0.4444722361180589,0.5038779084313236,0.7680760570427823,0.5633308334932068,0.4794582904581683,0.5764410415612955
0.2778889444722361,0.8266199649737305,0.69402051538654,0.5366098679735598,0.5740446831888658,0.0
0.5117558779389695,0.5379034275706781,0.7212909682261698,1.0,0.7156792298166977,0.5315747248722466
0.5062531265632816,0.7353014761070804,0.5646735051288467,0.8750300852852434,0.577402026614577,0.4743464080785531
0.5017508754377188,0.6742556917688267,0.7395546659994997,0.4826638994017824,0.5186633412979402,0.0
1.0,0.0,0.4966224668501376,0.3008336676142805,0.445717425048398,0.6677136927289534
0.9932466233116556,0.2414310733049788,0.5786840130097575,0.7352896035718646,0.3469504857247502,1.0
0.3516758379189594,0.4843632724543409,0.4210657993495122,0.3052130387010133,1.0,0.7921499206446099
0.5805402701350675,0.4753565173880412,0.7830873154866151,0.5032509548807925,0.4898372778485096,0.5568463644766904
0.3826913456728363,0.3192394295721792,0.6294721040780586,0.4897605385702077,0.4574376057345169,0.4192406299597119
0.5025012506253126,0.5001250938203654,0.7528146109582188,0.5006418194185256,0.4941556063275023,0.5004726441913598
0.4527263631815907,0.3760320240180136,0.7260445334000502,0.6535832010743499,0.4899122730523048,0.5007028620262658
0.5955477738869435,0.495371528646485,1.0000000000000002,0.5787903099220398,0.8921377121230618,0.0
0.5027513756878439,0.5001250938203654,0.7530647985989494,0.500610426077402,0.4941556063275023,0.5004726441913598
0.873936968484242,0.4428321240930699,0.7157868401300977,0.4914697315869334,0.4755672602333571,0.0
0.1925962981490745,0.3802852139104329,0.4603452589442082,0.4060711233583898,0.2438652179221096,0.1787013621221898
0.5027513756878439,0.5001250938203654,0.7528146109582188,0.5007028620262658,0.4942323456058042,0.5005040375324834
0.4674837418709354,0.4020515386539906,0.8386289717287967,0.9919266791077316,0.4681043654184906,0.4313584596333955
0.2633816908454227,0.4138103577683263,0.4858643982987241,0.4349442768195057,0.5316357674799868,0.4819627814500235
0.4189594797398699,0.6832624468351265,0.5736802601951465,0.8672166314944973,0.6450825819279,0.5901145856951009
0.4587293646823411,0.5361521140855643,0.4688516387290469,1.0,0.7841986849678217,0.6768247379528053
0.5027513756878439,0.5001250938203654,0.7528146109582188,0.5007482079634442,0.4942009522646807,0.5004569475207981
0.7318659329664832,0.4843632724543409,0.7242932199149363,0.2553865741144462,1.0,0.6837068559568864
0.3479239619809904,0.4228171128346261,0.7543157368026021,0.5761497811186493,0.5688560615309486,1.0
0.4187093546773386,0.4413309982486866,0.774330748061046,0.6106859445035492,0.5595775851544378,0.4471214050264227
0.5025012506253126,0.4998749061796348,0.7528146109582188,0.5007028620262658,0.4942166489352425,0.5005040375324834
0.316408204102051,0.4425819364523394,0.6249687265449088,0.5497043793710867,0.0,0.4358738685316636
0.3436718359179589,0.5894420815611711,0.8011008256192145,0.4667474754521513,0.4772311073129044,1.0
0.3749374687343672,0.5404053039779836,0.4645984488366275,0.3249594502677154,0.0,0.0
0.3314157078539269,0.4188141105829373,0.4180635476607456,0.3114690339571306,0.805075256814971,0.6879187958909605
0.4869934967483741,0.5221416062046537,0.790342757067801,0.4104958403823011,0.514238624274029,0.0
0.6608304152076037,0.5326494871153367,0.74881160870653,0.4737813279383295,0.4697839091685997,0.0
0.4507253626813406,0.2957217913435077,0.7753314986239681,0.9384080087901356,0.595699112266076,0.5441948480039067
0.7918959479739869,0.4450838128596449,0.6334751063297475,0.563468615379249,0.4151821685822418,1.0
0.5025012506253126,0.4998749061796348,0.7525644233174882,0.5006557720145804,0.4941556063275023,0.5004726441913598
0.5982991495747874,1.0000000000000002,0.3292469352014011,0.6732546174372569,0.0,1.0
0.5027513756878439,0.5001250938203654,0.7533149862396799,0.5007935539006226,0.4942166489352425,0.5004429949247432
0.2556278139069534,0.4258193645233926,0.3805354015511634,0.3623646162164048,1.0,0.6796326979088546
0.7936468234117058,0.571178383787841,0.5481611208406305,0.9993738772520362,0.0,0.442346129026632
0.8149074537268632,0.4325744308231175,0.8236177132849638,0.4651743202469609,0.3421141671172192,0.0
0.8196598299149573,0.6199649737302979,0.7125344008006006,0.0,1.0,0.6908488410624902
0.5370185092546272,0.3197398048536403,0.7838378784088067,0.9853044282051728,0.4611455081361075,0.3413956084203917
0.9462231115557778,0.4978734050537904,0.7428071053289969,0.4942619948724209,0.5264314491515077,0.0
0.477488744372186,0.7315486614961223,0.6174630973229923,0.8771369272895337,0.5498718105237456,0.5139177145647662
0.4662331165582791,0.5846885163872906,0.7420565424068052,0.3719640023021783,0.5262483213282871,0.0139630605019447
0.5025012506253126,0.5001250938203654,0.7530647985989494,0.5007168146223206,0.494171302998064,0.5003662556464412
0.9997498749374686,0.4210657993495122,0.3047285464098074,0.3137433071140799,0.9061775119033084,1.0
0.9997498749374686,0.5276457343007257,0.9229422066549914,0.3443413502624832,0.5373127299998256,0.0
0.2791395697848924,0.4713535151363524,0.6219664748561422,0.611158588694909,0.0,0.2561801280150688
0.5272636318159079,0.5821866399799851,0.751063297473105,0.5219456895198563,0.4008214590927325,1.0
0.2978989494747373,0.4138103577683263,0.6072054040530399,0.5038770776287563,0.488065298149537,0.5069902506235067
0.4289644822411205,0.3324993745308983,0.7097823367525645,0.1765666149257896,0.5429896925196644,0.5597607129776584
0.5852926463231616,0.5431573680260197,0.4423317488116088,0.1933062420426601,1.0,1.0
0.0,0.5764323242431826,0.6935201401050789,0.9114271761689658,1.0,0.7181662800634843
0.7603801900950474,0.5934450838128598,0.7508131098323744,0.7158309642987948,0.2473132532221776,0.0
0.108304152076038,0.4681010758068553,0.7785839379534653,0.3656155710971973,0.5019987093848649,0.5703053874461517
0.5025012506253126,0.5001250938203654,0.7530647985989494,0.5007028620262658,0.494171302998064,0.5004883408619216
0.4382191095547773,0.4283212409306981,0.8576432324243184,0.8543976838690548,0.7096656609170344,0.3705129323124684
0.3561780890445222,0.432824618463848,0.5869402051538655,0.450234578021173,0.0,0.2792995796780438
0.5665332666333166,0.524143107330498,0.8223667750813111,0.2914331060222893,0.3849503810802798,0.978786821773026
0.717608804402201,0.3855391543657744,0.7723292469352014,0.4469225805326403,0.4350663620349861,1.0
0.4837418709354676,0.7760820615461598,0.6685013760320242,0.0,0.367248024835621,0.5599891867380574
0.5097548774387193,0.5466599949962473,0.7465599199399551,0.546774334199557,0.4976646842353105,0.5109109301149345
0.7486243121560779,0.4378283712784589,0.6379784838628972,0.2174337687706019,0.439049828208661,1.0
0.3139069534767383,0.4415811858894172,0.5989492119089318,0.3655841777560737,1.0,0.9794443378621134
0.5350175087543771,0.6282211658744059,0.5216412309231925,0.0,0.0536878455447616,0.3077768282261018
0.0,1.0000000000000002,0.994495871903928,1.0,0.2476498596020022,0.7614001430141095
0.8521760880440219,0.4270703027270454,0.9744808606454842,0.5018923208399463,0.5108952334443727,0.3569771700647052
1.0,0.0,0.0,0.2856951008947102,0.8494532326420985,0.0126968624099622
0.5092546273136568,0.5509131848886666,0.7838378784088067,0.4870432704885152,0.5037846416798926,0.5000610426077402
0.5225112556278139,0.2872154115586691,0.6712534400800602,0.2632000279051921,0.4323490939532937,0.5932120620192894
0.0905452726363181,0.6572429321991495,0.7478108581436078,0.5002895163681392,0.5468353768072972,0.4301829534157699
0.0,0.0537903427570678,0.9116837628221168,0.7540436367441616,0.1050700245914505,1.0
0.6285642821410704,0.5113835376532401,0.7478108581436078,0.4166768404346234,0.4539581770933254,0.9957427141287476
0.4734867433716858,0.5804353264948713,0.6139604703527647,1.0,0.745070373406352,0.7109632523501404
0.5022511255627813,0.500375281461096,0.7525644233174882,0.5006418194185256,0.4941399096569405,0.5005040375324834
0.229864932466233,1.0000000000000002,0.6349762321741307,0.7363116312328862,0.0,0.2857247501613269
0.5647823911955977,1.0000000000000002,0.5171378533900426,0.4036590683153984,0.3441425257687008,0.0
0.2458729364682341,0.4265699274455843,0.7845884413309984,0.7826429705077,0.5063484312049811,0.9984285888693164
0.5587793896948473,0.4893670252689518,0.7623217413059795,0.5156722535186703,0.5081500601705705,0.3659818267436385
0.5380190095047523,0.6529897423067302,0.7503127345509133,1.0,0.582683084221358,0.5386103214329316
0.6543271635817909,0.51588691518639,0.8643982987240432,0.1208643633256013,1.0,0.5271325671032666
0.0,1.0000000000000002,0.0,0.6732389207666951,0.690086680502991,0.4642743778014196
0.5027513756878439,0.5001250938203654,0.7528146109582188,0.5005947294068402,0.4941242129863787,0.5004569475207981
0.6803401700850424,0.5924443332499376,0.613209907430573,0.4062839004482271,0.4955281929644034,1.0
0.5140070035017508,0.612709532149112,0.5509131848886666,1.0,0.8039468406090309,0.6134939044595985
0.2498749374687343,0.4640980735551665,0.5589191893920441,0.5895338088843155,0.196525803582329,0.3766014964159269
0.0807903951975988,0.5339004253189894,0.4233174881160871,0.5325200132549662,0.0,0.3921830580602403
0.5025012506253126,0.5001250938203654,0.7525644233174882,0.5007028620262658,0.4941399096569405,0.5004883408619216
1.0,0.607705779334501,0.6675006254691019,0.999909308125643,0.0,0.0344123340949125
0.5027513756878439,0.4996247185389043,0.7530647985989494,0.5006557720145804,0.494171302998064,0.5004569475207981
0.5027513756878439,0.4998749061796348,0.7525644233174882,0.5006557720145804,0.4942166489352425,0.5004272982541814
0.5025012506253126,0.4998749061796348,0.7528146109582188,0.5007028620262658,0.4941852555941189,0.5004272982541814
0.9997498749374686,0.3274956217162873,0.6542406805103829,0.9601391771456476,0.0,0.0
0.3796898449224612,0.4660995746810109,0.6752564423317489,1.0,0.938835307044317,0.7725848928266215
0.5210105052526263,0.4063047285464099,0.8056042031523645,0.8707727994139909,0.5920679491427874,0.3771369272895338
0.4439719859929965,0.4203152364273206,0.427820865649237,0.7389818093028935,0.0,0.0625529762631459
0.5027513756878439,0.4998749061796348,0.7528146109582188,0.500610426077402,0.4942166489352425,0.5004569475207981
0.151575787893947,0.6257192894671004,0.988491368526395,0.475797478068263,0.9035526797704798,0.0
0.5027513756878439,0.5001250938203654,0.7528146109582188,0.5006557720145804,0.4941399096569405,0.5005197342030452
0.9974987493746872,0.9974981235926949,0.7375531648736553,0.8052583846381918,0.5173361005982176,0.0
1.0,0.6657493119839881,0.8193645233925445,0.3096691490660481,0.4830301550482236,1.0
0.1688344172086042,1.0000000000000002,0.5078809106830123,0.1815407154193627,0.4565376632889757,0.981549435791897
0.568784392196098,0.5851888916687518,0.7663247435576683,0.4054763939515496,0.5086680502991088,1.0
0.5025012506253126,0.5001250938203654,0.7525644233174882,0.5006557720145804,0.4941242129863787,0.5005336867991
0.7038519259629814,0.4703527645734302,0.7292969727295473,0.5518705199086105,0.5247536494759056,0.0472923243280952
0.5025012506253126,0.4998749061796348,0.7525644233174882,0.5007028620262658,0.4941556063275023,0.5005197342030452
0.4777388694347173,0.8336252189141857,0.4681010758068552,0.0,0.5427594746847585,0.2201196435111708
0.4424712356178089,0.667500625469102,0.5954465849387042,1.0,0.6291208120410904,0.6771770410031916
0.3706853426713356,0.4545909432074057,0.5896922692019015,0.34688944311701,0.0,0.0
0.84192096048024,0.7968476357267953,0.8233675256442332,0.7368610147025481,0.6638837051118823,0.0
0.0475237618809404,0.4893670252689518,0.586690017513135,0.606641435722134,0.0161762910511537,0.568214242112423
0.5027513756878439,0.4998749061796348,0.7525644233174882,0.500610426077402,0.494171302998064,0.5004726441913598
0.5275137568784392,0.5404053039779836,0.7373029772329248,0.3999965118509863,0.5953642499607583,0.0
0.5025012506253126,0.5001250938203654,0.7528146109582188,0.5006261227479638,0.4941556063275023,0.5003976489875648
0.124312156078039,0.5101325994495873,0.636477358018514,0.591869124649005,0.0007011179517588,0.2628494689293127
0.0,0.8356267200400302,0.7500625469101827,0.4482969112440483,0.6242984460296144,0.0
0.9997498749374686,0.0007505629221917,0.5354015511633726,0.0343826848282958,0.5150007848335281,0.0021818372080855
0.5552776388194096,0.5416562421816363,0.5066299724793596,0.0,0.0944172175035317,0.1161640825296056
0.5760380190095047,0.8849136852639481,0.3279959969977484,0.996626959903727,0.430334687897867,0.6543767549749725
0.9997498749374686,0.6287215411558671,1.0000000000000002,0.983457453302405,0.8802797495509007,0.0
0.3221610805402701,0.4781085814360772,0.5814360770577934,0.2512670701292359,0.8456389416955892,0.0
0.5077538769384692,0.3855391543657744,1.0000000000000002,0.0,0.274843469313009,0.4526309363936027
0.2578789394697348,0.983487615711784,0.6567425569176883,1.0,0.0432792088878036,0.0
0.4952476238119059,0.6609957468101078,0.7860895671753816,0.2195406107748923,0.3835464011022551,0.89757050421194
0.4019509754877438,0.5984488366274707,0.7310482862146611,0.5208312259099709,0.4372325025725099,0.0818127910424333
1.0,0.0,0.0763072304228171,0.5429739958491027,0.21137485393376,0.7656277796187453
0.4552276138069034,0.644233174881161,0.7545659244433327,0.5188778624622844,0.5026858747405689,0.1168355512147479
0.5027513756878439,0.500375281461096,0.7528146109582188,0.5007028620262658,0.4941556063275023,0.5005197342030452
1.0,0.0102576932699525,0.3950462847135352,0.3711547517309939,0.3686049148019603,0.0
0.1528264132066033,0.4480860645484114,0.6692519389542158,0.4372325025725099,0.5366866072518618,0.4130596299073896
1.0,0.8518889166875159,0.6644983737803354,0.5203271883774875,0.3782199975582957,1.0
0.94072036018009,0.4806104578433827,0.8003502626970229,0.6206201928946404,0.4464359837452256,0.2797896646144723
0.5030015007503751,0.5001250938203654,0.7528146109582188,0.500687165355704,0.4941852555941189,0.5004883408619216
0.8229114557278638,0.425068801601201,0.7322992244183139,0.4711564958055008,0.6054519769084535,0.0
0.4702351175587793,0.4756067050287717,0.7558168626469853,0.915776897989082,0.4394300364511572,0.5341681636639517
0.8321660830415207,0.3582687015261447,0.5701776332249188,0.5543889634965206,0.7544709349983432,0.3847201632453738
0.5027513756878439,0.4998749061796348,0.7530647985989494,0.5006261227479638,0.494108516315817,0.5004569475207981
0.0,1.0000000000000002,0.9982486865148864,0.0940509618570905,0.0566021940457296,0.9811692275494008
0.4472236118059029,0.5018764073054792,0.5581686264698524,0.0,0.34336466853864,0.7185935783176657
0.4907453726863431,0.5691768826619966,0.7713284963722793,0.4530739313183459,0.4911645185482324,0.0
0.7921460730365182,0.393545158869152,0.7670753064798601,0.5770061217015191,0.8797460627518008,0.5085616617541902
0.28064032016008,0.4523392544408307,0.4908681511133351,0.4961839649789839,0.0,0.0
0.6650825412706353,0.4133099824868653,0.5851888916687517,0.4019202260320561,1.0,0.7565463836615101
0.5092546273136568,0.4836127095321492,0.3762822116587441,1.0,0.6107923330484678,0.939063780804716
0.5967983991995998,0.685764323242432,0.746059544658494,0.6682020335908749,0.4038735894797426,0.0
0.4459729864932465,1.0000000000000002,1.0000000000000002,0.9631302649249176,0.000610426077402,1.0
0.6185592796398198,0.4683512634475858,0.8518889166875158,0.3344367511380086,0.0,0.1495700856340583
0.5022511255627813,0.7448086064548413,0.5193895421566176,0.0,0.2973542389730889,0.3913895041596177
0.5025012506253126,0.4998749061796348,0.7533149862396799,0.500610426077402,0.4941852555941189,0.5004272982541814
0.6448224112056027,0.6304728546409809,0.7520640480360272,0.4709437187156635,0.4159600258123027,1.0
0.8744372186093046,1.0000000000000002,1.0000000000000002,0.0311317299475034,0.6839056804506689,0.0450494445122695
0.5030015007503751,0.500375281461096,0.7530647985989494,0.5006557720145804,0.4942166489352425,0.5003348623053177
0.5027513756878439,0.5001250938203654,0.7528146109582188,0.5006714686851422,0.4942009522646807,0.5004429949247432
0.5025012506253126,0.4998749061796348,0.7530647985989494,0.5006418194185256,0.4942166489352425,0.5004569475207981
0.5030015007503751,0.5001250938203654,0.7530647985989494,0.5005947294068402,0.4942776915429827,0.5005040375324834
0.5512756378189094,0.7968476357267953,0.7365524143107332,0.0004586915953049,0.0352372813366587,0.663151193819
0.4514757378689344,0.4956217162872155,0.7710783087315488,0.5833388562359384,0.5866351570539093,0.8090133770514676
0.4947473736868433,0.7312984738553917,0.5354015511633726,0.743682090098889,0.7149763677904319,0.5389294870676875
0.4704852426213106,0.5791843882912185,0.7112834625969479,0.5663986605507787,0.4395835150077611,1.0
0.6203101550775387,0.5484113084813611,0.7340505379034277,0.4460383347576608,0.6146380173361006,0.0
0.5027513756878439,0.4998749061796348,0.7528146109582188,0.5007325112928824,0.494171302998064,0.5004726441913598
0.6800900450225111,0.3319989992494372,0.7563172379284464,0.5273017423304324,0.5071419851056037,0.4068786298550674
0.1143071535767883,0.7598198648986743,0.8934200650487867,0.9589950642691456,0.3095017179133892,1.0
0.5025012506253126,0.4998749061796348,0.7530647985989494,0.5006714686851422,0.4941556063275023,0.5005336867991
0.7978989494747373,0.5116337252939707,0.6617463097322993,0.3329420792856271,1.0,0.8845684287632767
0.5025012506253126,0.5001250938203654,0.7528146109582188,0.5007325112928824,0.494171302998064,0.5004726441913598
0.5287643821910955,0.4458343757818365,0.536902677007756,0.6571690182604601,0.0,0.1630761986152049
0.5027513756878439,0.500375281461096,0.7525644233174882,0.5006261227479638,0.4941852555941189,0.5003662556464412
0.7898949474737368,0.2899674756067051,0.8166124593445085,0.6283429548110295,0.0645063397108324,0.3102952718140119
